time	acceleration_x	acceleration_y	acceleration_z	gyroscope_x	gyroscope_y	gyroscope_z	magnetometer_x	magnetometer_y	magnetometer_z	quaternion_w	quaternion_x	quaternion_y	quaternion_z
0	-5.1425	-0.4608	-0.3995	0.0124	0.0085	-0.0066	18.6962	-7.7642	11.3128	0.3479	-0.1866	0.3534	0.1474
0.01	-10.1597	-0.9128	-0.7899	0.0190	0.0152	-0.0150	36.7755	-15.5962	22.4252	0.6875	-0.3687	0.6984	0.2913
0.02	-8.9341	-0.8050	-0.6973	0.0078	0.0119	-0.0088	32.0665	-12.9150	19.9362	0.6050	-0.3245	0.6147	0.2563
0.03	-9.5899	-0.8561	-0.7444	0.0082	0.0156	-0.0129	34.4849	-13.8721	21.2414	0.6496	-0.3483	0.6600	0.2752
0.04	-9.1838	-0.8224	-0.7087	0.0133	0.0091	-0.0168	33.0246	-13.1951	20.3859	0.6220	-0.3335	0.6320	0.2635
0.05	-9.4398	-0.8444	-0.7326	0.0083	0.0045	-0.0178	34.2920	-13.5619	20.9107	0.6397	-0.3430	0.6499	0.2709
0.06	-9.2592	-0.8257	-0.7072	0.0108	-0.0037	-0.0164	33.4038	-13.0567	20.6844	0.6286	-0.3369	0.6385	0.2662
0.07	-9.3518	-0.8303	-0.6974	0.0095	-0.0026	-0.0179	33.7487	-13.2409	20.8509	0.6355	-0.3405	0.6454	0.2691
0.08	-9.2804	-0.8125	-0.6953	0.0020	-0.0034	-0.0137	33.7351	-13.2824	20.6850	0.6316	-0.3384	0.6413	0.2674
0.09	-9.3119	-0.8097	-0.6827	-0.0028	-0.0078	-0.0124	33.7618	-13.4385	20.8938	0.6337	-0.3394	0.6433	0.2683
0.1	-9.2939	-0.8120	-0.6747	-0.0011	-0.0030	-0.0197	33.8519	-13.4419	20.5741	0.6329	-0.3390	0.6424	0.2680
0.11	-9.3031	-0.8137	-0.6654	-0.0041	-0.0018	-0.0164	33.8389	-13.5402	20.5247	0.6329	-0.3390	0.6424	0.2681
0.12	-9.3046	-0.8258	-0.6689	-0.0056	0.0022	-0.0169	33.8134	-13.5021	20.5427	0.6330	-0.3390	0.6423	0.2681
0.13	-9.2970	-0.8396	-0.6753	-0.0025	0.0013	-0.0179	33.9362	-13.5900	20.8393	0.6330	-0.3390	0.6423	0.2681
0.14	-9.2959	-0.8537	-0.6751	-0.0147	-0.0002	-0.0169	33.9023	-13.7313	20.7791	0.6330	-0.3390	0.6422	0.2682
0.15	-9.2977	-0.8543	-0.6775	-0.0126	-0.0009	-0.0180	33.6805	-13.6433	20.4062	0.6330	-0.3391	0.6421	0.2682
0.16	-9.2889	-0.8574	-0.6754	-0.0101	-0.0029	-0.0168	33.8374	-13.5981	20.5025	0.6331	-0.3391	0.6421	0.2683
0.17	-9.2777	-0.8631	-0.6685	-0.0134	0.0014	-0.0138	33.8349	-13.6125	20.6421	0.6331	-0.3391	0.6420	0.2684
0.18	-9.2701	-0.8593	-0.6631	-0.0095	0.0028	-0.0204	33.9520	-13.4908	20.8402	0.6331	-0.3392	0.6420	0.2684
0.19	-9.2676	-0.8621	-0.6665	-0.0067	0.0078	-0.0170	33.8778	-13.5402	20.5994	0.6331	-0.3392	0.6419	0.2684
0.2	-9.2829	-0.8625	-0.6626	-0.0106	0.0158	-0.0227	33.4308	-13.4543	20.7088	0.6331	-0.3392	0.6419	0.2685
0.21	-9.2960	-0.8731	-0.6715	-0.0081	0.0186	-0.0286	33.6303	-13.3053	20.6153	0.6330	-0.3393	0.6419	0.2684
0.22	-9.3062	-0.8821	-0.6743	-0.0044	0.0198	-0.0298	33.7421	-13.4064	20.5996	0.6330	-0.3394	0.6419	0.2684
0.23	-9.3095	-0.8905	-0.6724	-0.0033	0.0208	-0.0258	33.6273	-13.3978	20.6761	0.6330	-0.3395	0.6419	0.2684
0.24	-9.3233	-0.8840	-0.6755	-0.0033	0.0205	-0.0222	33.6626	-13.2182	20.8189	0.6330	-0.3395	0.6419	0.2684
0.25	-9.3092	-0.8764	-0.6809	-0.0028	0.0240	-0.0268	33.7884	-13.5086	20.5630	0.6330	-0.3396	0.6419	0.2683
0.26	-9.2814	-0.8788	-0.6835	-0.0045	0.0194	-0.0254	34.0021	-13.3219	20.6670	0.6329	-0.3396	0.6419	0.2683
0.27	-9.2855	-0.8863	-0.6759	-0.0020	0.0201	-0.0275	33.7722	-13.1928	20.4954	0.6329	-0.3397	0.6419	0.2683
0.28	-9.2885	-0.8993	-0.6915	-0.0050	0.0212	-0.0270	33.5253	-13.5084	20.6542	0.6329	-0.3398	0.6419	0.2682
0.29	-9.3373	-0.8993	-0.6860	0.0019	0.0306	-0.0192	33.7526	-13.3360	20.5663	0.6329	-0.3398	0.6420	0.2682
0.3	-9.3706	-0.9076	-0.6921	0.0008	0.0260	-0.0235	33.9015	-13.4649	20.7446	0.6328	-0.3398	0.6420	0.2681
0.31	-9.3721	-0.9182	-0.7010	-0.0010	0.0135	-0.0188	34.0461	-13.5464	20.5022	0.6328	-0.3399	0.6420	0.2681
0.32	-9.3487	-0.9169	-0.6978	-0.0009	0.0105	-0.0166	33.7551	-13.4083	20.6897	0.6328	-0.3399	0.6420	0.2681
0.33	-9.3154	-0.9138	-0.6809	0.0043	0.0050	-0.0156	33.8155	-13.4259	20.7935	0.6328	-0.3399	0.6420	0.2681
0.34	-9.2925	-0.9096	-0.6712	0.0066	0.0044	-0.0096	34.0424	-13.4909	20.6867	0.6329	-0.3398	0.6420	0.2682
0.35	-9.2894	-0.8859	-0.6797	0.0135	0.0150	-0.0057	34.0105	-13.6213	20.6367	0.6329	-0.3397	0.6420	0.2682
0.36	-9.2926	-0.8621	-0.6905	0.0079	0.0150	-0.0090	33.7543	-13.4931	20.4887	0.6329	-0.3397	0.6420	0.2682
0.37	-9.2972	-0.8600	-0.6816	-0.0037	0.0169	-0.0150	33.9898	-13.5286	20.5568	0.6328	-0.3397	0.6420	0.2682
0.38	-9.3099	-0.8750	-0.6855	0.0005	0.0207	-0.0094	33.9550	-13.5254	20.4996	0.6328	-0.3397	0.6421	0.2682
0.39	-9.3116	-0.8863	-0.6935	-0.0039	0.0137	-0.0213	33.8055	-13.4067	20.6626	0.6328	-0.3397	0.6421	0.2682
0.4	-9.3036	-0.8906	-0.6993	-0.0020	0.0206	-0.0144	33.6986	-13.3197	20.8641	0.6328	-0.3398	0.6421	0.2682
0.41	-9.2946	-0.8784	-0.6940	0.0010	0.0080	-0.0112	33.6369	-13.3608	20.6967	0.6328	-0.3397	0.6421	0.2682
0.42	-9.2926	-0.8695	-0.6806	-0.0009	0.0136	-0.0107	33.6803	-13.3266	20.7252	0.6327	-0.3397	0.6421	0.2682
0.43	-9.2957	-0.8725	-0.6821	-0.0019	0.0165	-0.0056	33.5146	-13.3715	20.6737	0.6327	-0.3397	0.6421	0.2683
0.44	-9.2980	-0.8757	-0.6950	0.0021	0.0186	-0.0121	33.4644	-13.4701	20.6005	0.6327	-0.3397	0.6421	0.2683
0.45	-9.3000	-0.8737	-0.6963	0.0057	0.0206	-0.0186	33.5408	-13.3455	20.6261	0.6327	-0.3397	0.6422	0.2682
0.46	-9.3003	-0.8683	-0.6892	-0.0009	0.0241	-0.0178	33.7019	-13.3358	20.5113	0.6326	-0.3397	0.6422	0.2682
0.47	-9.3022	-0.8681	-0.6909	-0.0010	0.0185	-0.0113	33.8928	-13.5013	20.8138	0.6326	-0.3398	0.6422	0.2682
0.48	-9.3220	-0.8769	-0.6921	0.0001	0.0216	-0.0139	34.4464	-13.2511	20.7869	0.6326	-0.3398	0.6422	0.2682
0.49	-9.3030	-0.8858	-0.7217	0.0067	0.0264	-0.0097	34.1294	-13.3382	20.8301	0.6325	-0.3397	0.6423	0.2682
0.5	-9.3173	-0.8723	-0.7095	0.0112	0.0146	-0.0101	33.9267	-14.1362	20.6629	0.6325	-0.3397	0.6423	0.2682
0.51	-9.3608	-0.8481	-0.6897	-0.0037	0.0186	-0.0115	33.9880	-14.2116	20.7905	0.6325	-0.3397	0.6424	0.2682
0.52	-9.3344	-0.8690	-0.7215	-0.0077	0.0192	-0.0133	33.5884	-13.6567	20.8143	0.6325	-0.3397	0.6424	0.2682
0.53	-9.3304	-0.8827	-0.7179	-0.0035	0.0143	-0.0161	33.7975	-13.6829	20.8601	0.6324	-0.3398	0.6424	0.2682
0.54	-9.2994	-0.8895	-0.7024	-0.0025	0.0122	-0.0148	33.9869	-13.5394	20.5941	0.6324	-0.3398	0.6424	0.2682
0.55	-9.2811	-0.9005	-0.6793	-0.0016	0.0108	-0.0092	33.8119	-13.4721	20.6289	0.6324	-0.3398	0.6424	0.2683
0.56	-9.2772	-0.8907	-0.6878	-0.0031	0.0164	-0.0052	33.6375	-13.6067	20.8662	0.6324	-0.3397	0.6424	0.2683
0.57	-9.2831	-0.8691	-0.6973	-0.0035	0.0117	-0.0070	33.6761	-13.4725	20.6887	0.6324	-0.3397	0.6424	0.2684
0.58	-9.3076	-0.8581	-0.6857	-0.0027	0.0160	-0.0055	33.8208	-13.3745	20.9055	0.6323	-0.3397	0.6424	0.2684
0.59	-9.3164	-0.8655	-0.6885	-0.0041	0.0254	-0.0170	33.8533	-13.2218	20.9087	0.6323	-0.3397	0.6424	0.2684
0.6	-9.3182	-0.8721	-0.6960	0.0004	0.0164	-0.0183	33.8409	-13.3309	20.8963	0.6323	-0.3398	0.6425	0.2684
0.61	-9.3127	-0.8805	-0.7035	-0.0012	0.0202	-0.0187	33.8406	-13.5655	20.9383	0.6323	-0.3398	0.6425	0.2684
0.62	-9.3041	-0.8668	-0.6916	0.0086	0.0203	-0.0158	33.6377	-13.4092	20.8370	0.6322	-0.3398	0.6425	0.2683
0.63	-9.2987	-0.8534	-0.6856	0.0143	0.0161	-0.0153	33.4381	-13.4842	20.8142	0.6322	-0.3397	0.6425	0.2683
0.64	-9.2936	-0.8538	-0.6923	0.0039	0.0182	-0.0122	33.7373	-13.6300	20.8063	0.6322	-0.3397	0.6426	0.2683
0.65	-9.2859	-0.8469	-0.6955	0.0105	0.0191	-0.0173	33.8622	-13.2360	20.8661	0.6322	-0.3397	0.6426	0.2683
0.66	-9.2843	-0.8437	-0.6945	0.0025	0.0141	-0.0116	33.6164	-13.3467	20.8788	0.6322	-0.3397	0.6426	0.2683
0.67	-9.2973	-0.8395	-0.6876	0.0057	0.0191	-0.0110	33.8653	-13.6237	20.6754	0.6322	-0.3397	0.6426	0.2682
0.68	-9.3015	-0.8433	-0.6967	0.0025	0.0256	-0.0104	33.9458	-13.5795	20.9116	0.6322	-0.3397	0.6427	0.2682
0.69	-9.3126	-0.8524	-0.7048	-0.0005	0.0159	-0.0177	33.9250	-13.5667	20.8551	0.6321	-0.3397	0.6427	0.2682
0.7	-9.3122	-0.8586	-0.7063	-0.0019	0.0280	-0.0097	33.9366	-13.3764	20.7986	0.6321	-0.3397	0.6428	0.2682
0.71	-9.3151	-0.8686	-0.7171	0.0047	0.0238	-0.0093	33.9302	-13.5458	20.9244	0.6320	-0.3397	0.6428	0.2682
0.72	-9.3240	-0.8717	-0.7199	-0.0038	0.0211	-0.0090	33.7989	-13.2959	20.9195	0.6320	-0.3397	0.6428	0.2682
0.73	-9.3263	-0.8691	-0.7275	-0.0014	0.0191	-0.0085	33.9048	-13.4648	20.8431	0.6320	-0.3397	0.6429	0.2683
0.74	-9.3297	-0.8607	-0.7343	0.0000	0.0199	-0.0121	33.6256	-13.5090	20.8053	0.6319	-0.3397	0.6429	0.2683
0.75	-9.3396	-0.8479	-0.7278	0.0112	0.0137	-0.0058	33.4933	-13.6292	20.8221	0.6319	-0.3396	0.6429	0.2683
0.76	-9.3430	-0.8497	-0.7268	0.0054	0.0130	-0.0109	33.7379	-13.6798	20.8501	0.6319	-0.3396	0.6429	0.2683
0.77	-9.3382	-0.8506	-0.7280	0.0092	0.0155	-0.0082	33.5558	-13.7182	20.9787	0.6319	-0.3396	0.6430	0.2683
0.78	-9.3440	-0.8461	-0.7246	0.0133	0.0167	-0.0099	33.5817	-13.3454	20.7386	0.6319	-0.3395	0.6430	0.2682
0.79	-9.3282	-0.8443	-0.7306	0.0062	0.0155	-0.0114	33.4501	-13.5164	20.7942	0.6319	-0.3395	0.6430	0.2682
0.8	-9.3214	-0.8306	-0.7168	0.0089	0.0125	-0.0056	33.7265	-13.5630	20.7417	0.6319	-0.3394	0.6431	0.2682
0.81	-9.3170	-0.8206	-0.7027	0.0032	0.0076	-0.0088	33.4352	-13.4681	20.8083	0.6319	-0.3394	0.6431	0.2683
0.82	-9.3113	-0.8192	-0.6934	0.0069	0.0082	-0.0095	33.7651	-13.6249	21.0200	0.6319	-0.3393	0.6431	0.2683
0.83	-9.3124	-0.8175	-0.6950	0.0025	0.0098	-0.0070	33.6430	-13.5600	20.7387	0.6319	-0.3393	0.6431	0.2683
0.84	-9.3136	-0.8197	-0.6888	0.0041	0.0027	-0.0132	33.6125	-13.3873	20.8756	0.6320	-0.3393	0.6431	0.2683
0.85	-9.3072	-0.8305	-0.6864	0.0076	0.0003	-0.0180	33.6879	-13.5343	20.6794	0.6320	-0.3392	0.6430	0.2683
0.86	-9.3072	-0.8438	-0.6888	-0.0009	0.0027	-0.0095	33.7842	-13.6913	20.6524	0.6320	-0.3392	0.6430	0.2683
0.87	-9.3046	-0.8450	-0.6883	0.0011	0.0033	-0.0160	33.8687	-13.5362	20.8050	0.6321	-0.3392	0.6430	0.2684
0.88	-9.2985	-0.8423	-0.6840	-0.0022	0.0049	-0.0081	33.8180	-13.6805	20.8354	0.6321	-0.3392	0.6430	0.2684
0.89	-9.2787	-0.8349	-0.6771	0.0036	0.0055	-0.0113	33.9577	-13.7908	20.9123	0.6321	-0.3392	0.6430	0.2684
0.9	-9.2739	-0.8375	-0.6686	-0.0050	0.0080	-0.0103	34.0571	-13.5598	20.7896	0.6321	-0.3392	0.6429	0.2685
0.91	-9.2705	-0.8354	-0.6773	0.0033	0.0132	-0.0140	33.9417	-13.4860	20.6060	0.6321	-0.3391	0.6429	0.2685
0.92	-9.2783	-0.8299	-0.6772	0.0019	0.0128	-0.0228	33.8545	-13.4257	20.7660	0.6321	-0.3392	0.6429	0.2684
0.93	-9.2887	-0.8344	-0.6830	-0.0051	0.0225	-0.0168	33.8004	-13.3962	20.6491	0.6321	-0.3392	0.6430	0.2684
0.94	-9.2926	-0.8348	-0.6809	-0.0030	0.0164	-0.0191	33.7765	-13.2696	20.7316	0.6320	-0.3392	0.6430	0.2684
0.95	-9.3124	-0.8382	-0.6830	-0.0035	0.0203	-0.0162	33.9593	-13.4955	20.8527	0.6320	-0.3393	0.6430	0.2684
0.96	-9.3163	-0.8432	-0.6949	-0.0034	0.0265	-0.0244	33.7235	-13.5995	20.8164	0.6320	-0.3393	0.6430	0.2684
0.97	-9.3209	-0.8284	-0.6955	-0.0040	0.0249	-0.0194	34.0521	-13.4612	20.7909	0.6319	-0.3394	0.6430	0.2684
0.98	-9.2943	-0.8284	-0.7040	-0.0025	0.0242	-0.0202	34.6371	-13.2717	20.9517	0.6319	-0.3394	0.6430	0.2684
0.99	-9.2855	-0.8383	-0.6919	-0.0049	0.0218	-0.0242	34.2978	-13.1818	21.0427	0.6319	-0.3395	0.6431	0.2683
1	-9.2882	-0.8519	-0.7027	-0.0121	0.0241	-0.0272	33.5609	-13.8457	20.7194	0.6318	-0.3396	0.6430	0.2683
1.01	-9.3168	-0.8685	-0.7097	-0.0066	0.0246	-0.0184	33.7631	-14.1248	20.8540	0.6318	-0.3396	0.6431	0.2683
1.02	-9.3663	-0.8621	-0.7042	-0.0102	0.0319	-0.0207	33.6855	-13.3518	20.6799	0.6317	-0.3397	0.6431	0.2683
1.03	-9.3846	-0.8732	-0.7103	-0.0088	0.0204	-0.0224	33.5574	-13.3133	20.8487	0.6317	-0.3398	0.6431	0.2683
1.04	-9.3608	-0.8850	-0.7275	-0.0037	0.0061	-0.0106	33.7797	-13.4412	20.8677	0.6317	-0.3398	0.6431	0.2683
1.05	-9.3262	-0.8775	-0.7128	-0.0037	0.0057	-0.0154	34.0786	-13.5389	20.5881	0.6317	-0.3398	0.6431	0.2684
1.06	-9.2967	-0.8811	-0.6976	-0.0049	0.0068	-0.0181	33.9283	-13.6090	20.7213	0.6317	-0.3398	0.6430	0.2684
1.07	-9.2777	-0.8719	-0.6958	-0.0032	0.0160	-0.0142	33.9432	-13.7062	20.8498	0.6317	-0.3398	0.6430	0.2684
1.08	-9.2810	-0.8423	-0.7142	-0.0028	0.0162	-0.0082	33.7923	-13.5927	20.7525	0.6316	-0.3398	0.6431	0.2684
1.09	-9.3000	-0.8485	-0.7119	-0.0056	0.0174	-0.0126	33.9873	-13.5777	20.7101	0.6316	-0.3398	0.6431	0.2685
1.1	-9.3015	-0.8565	-0.7184	-0.0055	0.0152	-0.0140	33.6347	-13.3934	20.7114	0.6316	-0.3398	0.6431	0.2685
1.11	-9.3131	-0.8669	-0.7194	-0.0062	0.0192	-0.0173	33.7181	-13.7375	20.7388	0.6315	-0.3399	0.6431	0.2685
1.12	-9.3040	-0.8900	-0.7303	-0.0112	0.0183	-0.0208	33.9523	-13.4018	20.6707	0.6315	-0.3399	0.6431	0.2685
1.13	-9.3030	-0.8864	-0.7283	-0.0061	0.0154	-0.0120	33.6228	-13.3278	20.9075	0.6315	-0.3399	0.6431	0.2685
1.14	-9.3059	-0.8699	-0.7239	-0.0036	0.0133	-0.0120	33.8406	-13.4569	20.8811	0.6315	-0.3400	0.6431	0.2685
1.15	-9.2966	-0.8687	-0.7273	-0.0065	0.0170	-0.0111	33.7799	-13.4509	20.8023	0.6314	-0.3400	0.6431	0.2686
1.16	-9.2955	-0.8695	-0.7158	-0.0054	0.0169	-0.0106	33.6274	-13.3702	20.7427	0.6314	-0.3400	0.6431	0.2686
1.17	-9.2899	-0.8771	-0.7308	-0.0037	0.0162	-0.0185	33.7089	-13.3516	20.6968	0.6314	-0.3400	0.6431	0.2686
1.18	-9.3038	-0.8736	-0.7366	-0.0068	0.0184	-0.0163	33.6480	-13.3362	20.7201	0.6314	-0.3400	0.6431	0.2686
1.19	-9.3151	-0.8700	-0.7361	-0.0017	0.0182	-0.0178	33.7160	-13.2345	20.9050	0.6313	-0.3401	0.6431	0.2686
1.2	-9.3158	-0.8809	-0.7445	-0.0076	0.0246	-0.0196	33.5722	-13.2844	20.8058	0.6313	-0.3401	0.6432	0.2686
1.21	-9.3202	-0.8824	-0.7504	-0.0029	0.0212	-0.0193	33.6160	-13.2478	20.8064	0.6312	-0.3402	0.6432	0.2686
1.22	-9.2990	-0.8752	-0.7576	-0.0019	0.0118	-0.0169	33.3843	-13.4291	21.0719	0.6312	-0.3402	0.6432	0.2686
1.23	-9.3559	-0.8600	-0.7267	-0.0016	0.0088	-0.0094	33.5753	-13.4293	20.8501	0.6312	-0.3402	0.6432	0.2686
1.24	-9.3519	-0.8543	-0.7534	-0.0018	0.0121	-0.0095	33.8985	-13.5243	20.6844	0.6312	-0.3402	0.6432	0.2687
1.25	-9.3463	-0.8680	-0.7599	-0.0031	0.0042	-0.0116	33.9459	-13.7532	20.7677	0.6312	-0.3401	0.6431	0.2687
1.26	-9.3127	-0.8925	-0.7466	-0.0111	-0.0054	-0.0123	33.9250	-13.6515	20.8000	0.6313	-0.3401	0.6431	0.2688
1.27	-9.2960	-0.8916	-0.7270	-0.0073	-0.0098	-0.0049	34.0312	-13.5323	20.6016	0.6313	-0.3401	0.6430	0.2689
1.28	-9.2955	-0.8757	-0.7278	-0.0011	0.0092	-0.0069	33.9400	-13.5159	20.7333	0.6313	-0.3401	0.6430	0.2689
1.29	-9.2801	-0.8649	-0.7341	-0.0045	0.0079	-0.0061	33.9385	-13.6771	20.7264	0.6313	-0.3401	0.6430	0.2690
1.3	-9.2965	-0.8574	-0.7128	-0.0024	0.0042	-0.0070	33.7347	-13.7153	20.9215	0.6313	-0.3400	0.6430	0.2690
1.31	-9.2988	-0.8661	-0.7252	-0.0080	0.0133	-0.0087	33.8903	-13.6378	20.8228	0.6313	-0.3400	0.6430	0.2691
1.32	-9.3066	-0.8754	-0.7340	-0.0085	0.0097	-0.0118	33.5836	-13.4691	20.6821	0.6313	-0.3401	0.6430	0.2691
1.33	-9.3140	-0.8752	-0.7250	-0.0019	0.0088	-0.0135	33.6727	-13.3215	20.7473	0.6313	-0.3401	0.6430	0.2691
1.34	-9.3028	-0.8697	-0.7296	-0.0007	0.0036	-0.0073	33.5381	-13.3667	20.6212	0.6313	-0.3400	0.6430	0.2692
1.35	-9.3090	-0.8572	-0.7111	-0.0028	0.0198	-0.0083	33.4695	-13.3532	20.6176	0.6313	-0.3400	0.6430	0.2692
1.36	-9.3067	-0.8498	-0.7250	-0.0028	0.0171	-0.0090	33.8836	-13.4643	20.8746	0.6312	-0.3400	0.6430	0.2692
1.37	-9.3067	-0.8472	-0.7307	-0.0016	0.0086	-0.0118	33.6080	-13.4295	20.7393	0.6312	-0.3400	0.6430	0.2693
1.38	-9.3065	-0.8438	-0.7225	-0.0033	0.0028	-0.0065	33.5711	-13.4472	21.0191	0.6312	-0.3400	0.6430	0.2693
1.39	-9.2970	-0.8456	-0.7195	-0.0037	0.0017	-0.0068	33.6055	-13.4352	20.8578	0.6312	-0.3400	0.6430	0.2694
1.4	-9.3003	-0.8412	-0.7172	-0.0029	-0.0025	-0.0065	33.5531	-13.4549	20.8082	0.6313	-0.3399	0.6429	0.2694
1.41	-9.2995	-0.8392	-0.7161	-0.0040	-0.0038	-0.0067	33.7006	-13.6467	20.7494	0.6313	-0.3399	0.6429	0.2695
1.42	-9.3032	-0.8311	-0.7104	0.0008	0.0070	-0.0052	33.9936	-13.4956	20.6920	0.6313	-0.3398	0.6429	0.2695
1.43	-9.3113	-0.8228	-0.7135	-0.0039	0.0062	-0.0061	33.6642	-13.5788	20.8681	0.6313	-0.3398	0.6429	0.2696
1.44	-9.3181	-0.8265	-0.7215	-0.0053	0.0081	-0.0055	33.9130	-13.7653	20.7277	0.6313	-0.3398	0.6429	0.2697
1.45	-9.3263	-0.8232	-0.7245	-0.0024	0.0107	-0.0055	33.9494	-13.5917	20.7842	0.6313	-0.3398	0.6429	0.2697
1.46	-9.3259	-0.8191	-0.7256	-0.0037	0.0032	-0.0055	33.8587	-13.7212	20.9447	0.6313	-0.3398	0.6429	0.2698
1.47	-9.3337	-0.8167	-0.7254	-0.0028	0.0035	-0.0057	33.9556	-13.6903	20.8693	0.6313	-0.3397	0.6428	0.2698
1.48	-9.3369	-0.8162	-0.7200	-0.0040	0.0042	-0.0057	34.4367	-13.2353	20.9859	0.6313	-0.3397	0.6428	0.2699
1.49	-9.3216	-0.8158	-0.7244	-0.0023	-0.0061	-0.0061	34.1903	-13.4544	20.9967	0.6313	-0.3397	0.6428	0.2699
1.5	-9.3232	-0.8064	-0.7071	-0.0017	-0.0095	-0.0071	33.6800	-14.2291	21.0085	0.6314	-0.3396	0.6427	0.2700
1.51	-9.3096	-0.7925	-0.7045	-0.0043	-0.0119	-0.0066	33.8798	-14.5914	20.8939	0.6314	-0.3396	0.6427	0.2701
1.52	-9.3054	-0.7827	-0.6998	-0.0013	-0.0054	-0.0073	33.6955	-13.4817	20.6793	0.6315	-0.3395	0.6426	0.2702
1.53	-9.3205	-0.7796	-0.6988	-0.0016	-0.0022	-0.0058	33.7590	-13.4579	20.8177	0.6315	-0.3395	0.6426	0.2702
1.54	-9.3134	-0.7892	-0.7050	-0.0026	0.0029	-0.0103	33.7212	-13.4927	20.9448	0.6315	-0.3394	0.6426	0.2703
1.55	-9.3121	-0.7893	-0.6908	-0.0091	-0.0014	-0.0138	33.7442	-13.4699	20.7717	0.6316	-0.3395	0.6425	0.2703
1.56	-9.3060	-0.7919	-0.6782	-0.0101	-0.0060	-0.0067	33.7356	-13.4846	20.5870	0.6316	-0.3394	0.6425	0.2704
1.57	-9.2870	-0.7822	-0.6855	-0.0035	0.0007	-0.0065	33.6277	-13.4786	20.7452	0.6316	-0.3394	0.6424	0.2705
1.58	-9.3143	-0.7815	-0.6659	-0.0110	-0.0026	-0.0057	33.6589	-13.6374	20.8476	0.6316	-0.3394	0.6424	0.2706
1.59	-9.2977	-0.7917	-0.6826	-0.0039	0.0062	-0.0122	33.6216	-13.6651	20.6977	0.6316	-0.3394	0.6424	0.2706
1.6	-9.3129	-0.7894	-0.6757	-0.0041	0.0087	-0.0087	33.7518	-13.6434	20.8354	0.6316	-0.3394	0.6424	0.2707
1.61	-9.3111	-0.7918	-0.6857	-0.0041	0.0003	-0.0109	33.9651	-13.6742	20.6312	0.6316	-0.3394	0.6423	0.2707
1.62	-9.3144	-0.7913	-0.6817	-0.0190	0.0041	-0.0135	33.8477	-13.7907	20.6983	0.6316	-0.3394	0.6423	0.2708
1.63	-9.3039	-0.7880	-0.6897	-0.0130	0.0030	-0.0089	33.7429	-13.6290	20.6465	0.6316	-0.3394	0.6422	0.2709
1.64	-9.2952	-0.7907	-0.6678	-0.0024	0.0000	-0.0065	33.6146	-13.6927	20.5037	0.6317	-0.3394	0.6422	0.2709
1.65	-9.3006	-0.7868	-0.6730	-0.0121	0.0115	-0.0086	33.6856	-13.7255	20.6970	0.6316	-0.3394	0.6422	0.2710
1.66	-9.2983	-0.7813	-0.6771	-0.0107	0.0072	-0.0138	33.7822	-13.6093	20.7401	0.6316	-0.3394	0.6422	0.2710
1.67	-9.3135	-0.7887	-0.6734	-0.0138	0.0020	-0.0184	33.5197	-13.7737	20.6010	0.6316	-0.3395	0.6421	0.2711
1.68	-9.3017	-0.7996	-0.6758	-0.0049	0.0119	-0.0137	33.7055	-13.7204	20.5384	0.6316	-0.3395	0.6421	0.2711
1.69	-9.3081	-0.7926	-0.6677	-0.0109	0.0040	-0.0103	33.9029	-13.6081	20.6616	0.6316	-0.3395	0.6421	0.2712
1.7	-9.3159	-0.7990	-0.6642	-0.0154	0.0036	-0.0177	33.6323	-13.7716	20.5826	0.6316	-0.3395	0.6420	0.2712
1.71	-9.3014	-0.7948	-0.6681	-0.0214	0.0115	-0.0092	33.5574	-13.6143	20.8605	0.6316	-0.3396	0.6420	0.2713
1.72	-9.2965	-0.7877	-0.6549	-0.0250	0.0115	-0.0144	33.8139	-13.5836	20.7476	0.6315	-0.3397	0.6420	0.2714
1.73	-9.2902	-0.7872	-0.6632	-0.0235	0.0174	-0.0120	33.8434	-13.6987	20.7053	0.6315	-0.3397	0.6420	0.2715
1.74	-9.2891	-0.8050	-0.6755	-0.0274	0.0170	-0.0170	33.7260	-13.5410	20.7158	0.6314	-0.3398	0.6419	0.2716
1.75	-9.3744	-0.8006	-0.6472	-0.0255	0.0176	-0.0171	33.6352	-13.6967	20.7159	0.6313	-0.3399	0.6419	0.2716
1.76	-9.3946	-0.8088	-0.6793	-0.0224	0.0266	-0.0203	33.8080	-13.7727	20.7120	0.6313	-0.3400	0.6419	0.2717
1.77	-9.3965	-0.8353	-0.6774	-0.0196	0.0176	-0.0188	33.8405	-13.6580	20.7345	0.6312	-0.3401	0.6419	0.2717
1.78	-9.3400	-0.8319	-0.6749	-0.0088	0.0148	-0.0150	33.8026	-13.6472	20.5937	0.6312	-0.3402	0.6419	0.2717
1.79	-9.2815	-0.8337	-0.6471	-0.0074	0.0054	-0.0094	33.5980	-13.7991	20.6690	0.6312	-0.3402	0.6419	0.2718
1.8	-9.2475	-0.8230	-0.6336	-0.0038	0.0106	-0.0093	33.6936	-13.8545	20.7282	0.6312	-0.3402	0.6419	0.2718
1.81	-9.2451	-0.7793	-0.6440	-0.0035	0.0143	-0.0044	33.8544	-13.7450	20.7901	0.6312	-0.3401	0.6419	0.2719
1.82	-9.2718	-0.7518	-0.6398	-0.0050	0.0198	-0.0076	33.7769	-13.6244	20.8347	0.6311	-0.3401	0.6419	0.2719
1.83	-9.2802	-0.7607	-0.6369	-0.0180	0.0280	-0.0112	33.7623	-13.8512	20.5906	0.6310	-0.3402	0.6420	0.2719
1.84	-9.3008	-0.7539	-0.6477	-0.0205	0.0300	-0.0050	33.5738	-13.7387	20.4909	0.6309	-0.3403	0.6420	0.2720
1.85	-9.2942	-0.7625	-0.6630	-0.0189	0.0317	-0.0130	33.5465	-13.8497	20.7382	0.6308	-0.3403	0.6421	0.2720
1.86	-9.2873	-0.7958	-0.6493	-0.0253	0.0350	-0.0119	33.9086	-13.7947	20.7288	0.6307	-0.3404	0.6421	0.2721
1.87	-9.2933	-0.8094	-0.6487	-0.0292	0.0349	-0.0087	33.5424	-13.7359	20.6615	0.6306	-0.3405	0.6421	0.2722
1.88	-9.2723	-0.8175	-0.6623	-0.0296	0.0341	-0.0105	33.6313	-13.6819	20.5891	0.6304	-0.3406	0.6422	0.2722
1.89	-9.2739	-0.8158	-0.6548	-0.0176	0.0417	-0.0120	33.6706	-13.5312	20.7565	0.6303	-0.3407	0.6423	0.2723
1.9	-9.2635	-0.8091	-0.6511	-0.0147	0.0406	-0.0136	33.7392	-13.6062	20.6564	0.6302	-0.3408	0.6423	0.2723
1.91	-9.2563	-0.8157	-0.6514	-0.0183	0.0456	-0.0133	33.5200	-13.7310	20.5998	0.6300	-0.3409	0.6424	0.2723
1.92	-9.2515	-0.8149	-0.6580	-0.0030	0.0554	-0.0131	33.6694	-13.8391	20.7252	0.6299	-0.3410	0.6425	0.2722
1.93	-9.2582	-0.8116	-0.6594	-0.0057	0.0553	-0.0150	33.6141	-13.7167	20.7232	0.6297	-0.3411	0.6427	0.2722
1.94	-9.2717	-0.8204	-0.6696	-0.0026	0.0568	-0.0176	33.5136	-13.7704	20.6925	0.6296	-0.3411	0.6428	0.2721
1.95	-9.2644	-0.8367	-0.6898	-0.0042	0.0624	-0.0198	33.3503	-13.6476	20.8072	0.6294	-0.3412	0.6430	0.2720
1.96	-9.2487	-0.8345	-0.6982	-0.0033	0.0684	-0.0137	33.4071	-13.8512	20.7992	0.6292	-0.3413	0.6431	0.2719
1.97	-9.2968	-0.8016	-0.6655	-0.0032	0.0671	-0.0088	33.8893	-13.6875	20.8404	0.6290	-0.3414	0.6433	0.2719
1.98	-9.2873	-0.8235	-0.6843	-0.0040	0.0645	-0.0110	34.4112	-13.3520	20.9562	0.6289	-0.3414	0.6435	0.2718
1.99	-9.2629	-0.8452	-0.7132	-0.0022	0.0672	-0.0085	34.1888	-13.5835	21.1379	0.6287	-0.3415	0.6437	0.2717
2	-9.2166	-0.8396	-0.7000	0.0121	0.0610	-0.0087	33.5954	-14.5835	20.8089	0.6285	-0.3415	0.6439	0.2716
2.01	-9.2359	-0.8409	-0.6671	-0.0012	0.0718	-0.0048	33.5140	-14.6797	20.7320	0.6283	-0.3416	0.6441	0.2716
2.02	-9.2454	-0.8392	-0.6974	0.0032	0.0874	-0.0071	33.5226	-13.8745	20.9264	0.6281	-0.3416	0.6443	0.2715
2.03	-9.2592	-0.8173	-0.7287	0.0111	0.0915	-0.0054	33.8407	-13.8435	21.0243	0.6278	-0.3417	0.6446	0.2713
2.04	-9.2683	-0.8188	-0.7239	0.0140	0.0927	-0.0044	33.3268	-13.8274	21.1210	0.6276	-0.3417	0.6449	0.2712
2.05	-9.2787	-0.8200	-0.7217	0.0143	0.0918	-0.0050	33.5847	-13.8562	21.0985	0.6273	-0.3417	0.6452	0.2710
2.06	-9.2929	-0.8207	-0.7462	0.0147	0.1038	-0.0043	33.5900	-13.6730	21.0909	0.6270	-0.3418	0.6455	0.2708
2.07	-9.2897	-0.8287	-0.7754	0.0119	0.0953	-0.0049	33.5211	-13.8215	21.1235	0.6268	-0.3418	0.6458	0.2707
2.08	-9.2974	-0.8201	-0.7663	0.0178	0.0930	-0.0048	33.1016	-13.6181	21.2057	0.6265	-0.3419	0.6461	0.2705
2.09	-9.2912	-0.8052	-0.7771	0.0178	0.0990	-0.0028	33.1673	-13.6233	21.1761	0.6262	-0.3419	0.6464	0.2704
2.1	-9.2910	-0.7881	-0.7854	0.0216	0.0978	0.0016	33.4538	-13.6009	21.2766	0.6260	-0.3419	0.6467	0.2702
2.11	-9.2771	-0.7831	-0.7953	0.0224	0.0988	-0.0036	33.3068	-13.7643	21.1856	0.6257	-0.3419	0.6471	0.2700
2.12	-9.2980	-0.7685	-0.8030	0.0203	0.1035	-0.0010	33.2811	-13.7853	21.1631	0.6254	-0.3419	0.6474	0.2698
2.13	-9.3050	-0.7583	-0.8084	0.0155	0.1043	0.0007	33.2219	-13.8787	21.3109	0.6251	-0.3419	0.6477	0.2697
2.14	-9.2915	-0.7656	-0.8240	0.0146	0.1056	-0.0036	33.2345	-13.7798	21.2325	0.6249	-0.3420	0.6481	0.2695
2.15	-9.2924	-0.7705	-0.8276	0.0161	0.1089	0.0018	33.1144	-13.8075	21.2492	0.6245	-0.3420	0.6484	0.2693
2.16	-9.2920	-0.7676	-0.8489	0.0218	0.1087	0.0089	32.9367	-13.7340	21.2047	0.6242	-0.3420	0.6488	0.2692
2.17	-9.2960	-0.7575	-0.8574	0.0174	0.1063	0.0083	33.1785	-13.6713	21.2839	0.6239	-0.3420	0.6491	0.2690
2.18	-9.2789	-0.7537	-0.8728	0.0203	0.1160	-0.0026	33.3375	-13.8685	21.3714	0.6236	-0.3420	0.6495	0.2688
2.19	-9.2964	-0.7396	-0.8754	0.0208	0.1166	0.0017	33.1992	-14.0059	21.4797	0.6233	-0.3420	0.6499	0.2686
2.2	-9.2835	-0.7290	-0.8937	0.0223	0.1134	0.0033	33.2601	-13.9346	21.6147	0.6230	-0.3420	0.6503	0.2684
2.21	-9.2881	-0.7179	-0.9025	0.0222	0.1161	0.0059	33.1302	-14.0036	21.4337	0.6226	-0.3420	0.6507	0.2683
2.22	-9.2929	-0.7033	-0.9176	0.0219	0.1181	0.0046	33.2834	-13.9019	21.4883	0.6223	-0.3420	0.6511	0.2681
2.23	-9.2951	-0.6931	-0.9215	0.0247	0.1177	0.0043	33.1717	-13.9121	21.4633	0.6220	-0.3421	0.6515	0.2679
2.24	-9.2858	-0.6704	-0.9358	0.0349	0.1184	-0.0009	33.0478	-14.1578	21.4698	0.6216	-0.3420	0.6519	0.2676
2.25	-9.2814	-0.6337	-0.9350	0.0301	0.1079	-0.0057	32.9569	-14.0486	21.6011	0.6214	-0.3420	0.6522	0.2674
2.26	-9.2790	-0.6197	-0.9248	0.0212	0.1141	-0.0035	33.1291	-14.0168	21.6947	0.6211	-0.3421	0.6526	0.2672
2.27	-9.2777	-0.6176	-0.9472	0.0208	0.1204	-0.0057	32.8885	-13.8924	21.8663	0.6207	-0.3421	0.6530	0.2670
2.28	-9.2782	-0.6086	-0.9707	0.0196	0.1179	-0.0047	32.7849	-13.7600	21.7001	0.6204	-0.3422	0.6534	0.2667
2.29	-9.2940	-0.6286	-0.9770	0.0103	0.1184	-0.0039	32.7822	-13.5905	21.6709	0.6201	-0.3422	0.6537	0.2666
2.3	-9.2772	-0.6395	-1.0031	0.0039	0.1205	-0.0100	32.8497	-13.8055	21.9759	0.6197	-0.3423	0.6541	0.2664
2.31	-9.2931	-0.6216	-1.0019	-0.0022	0.1181	-0.0051	32.9108	-13.7875	21.8068	0.6193	-0.3425	0.6544	0.2662
2.32	-9.2743	-0.6099	-1.0284	-0.0027	0.1204	-0.0133	32.7483	-13.6828	21.9644	0.6190	-0.3426	0.6548	0.2661
2.33	-9.3117	-0.6193	-1.0105	-0.0096	0.1192	-0.0109	32.8464	-13.7320	21.8754	0.6186	-0.3428	0.6551	0.2659
2.34	-9.3182	-0.5985	-1.0684	-0.0199	0.1251	-0.0050	32.6403	-13.8775	22.0790	0.6182	-0.3429	0.6554	0.2658
2.35	-9.3508	-0.5743	-1.0715	-0.0135	0.1164	-0.0175	32.4943	-13.9665	22.2340	0.6178	-0.3431	0.6557	0.2657
2.36	-9.3536	-0.6080	-1.0813	-0.0307	0.1148	-0.0230	32.9241	-13.8530	22.0545	0.6174	-0.3434	0.6560	0.2656
2.37	-9.3238	-0.6311	-1.1204	-0.0270	0.1035	-0.0197	32.9945	-13.9029	21.9956	0.6171	-0.3436	0.6562	0.2655
2.38	-9.2979	-0.6524	-1.1244	-0.0284	0.1016	-0.0168	32.8900	-14.1559	22.1216	0.6167	-0.3438	0.6565	0.2654
2.39	-9.2605	-0.6583	-1.1380	-0.0285	0.0944	-0.0279	32.7596	-14.1268	22.1176	0.6164	-0.3441	0.6567	0.2653
2.4	-9.3593	-0.6302	-1.1020	-0.0293	0.0895	-0.0237	32.6814	-13.8765	22.1168	0.6161	-0.3443	0.6569	0.2653
2.41	-9.3151	-0.6476	-1.1638	-0.0285	0.0926	-0.0236	32.7279	-13.8724	22.0927	0.6158	-0.3445	0.6571	0.2652
2.42	-9.3607	-0.6593	-1.1472	-0.0284	0.0886	-0.0210	32.5952	-13.9596	22.2267	0.6155	-0.3447	0.6573	0.2652
2.43	-9.3281	-0.6498	-1.1712	-0.0294	0.0844	-0.0305	32.6328	-13.9848	22.0552	0.6153	-0.3449	0.6574	0.2651
2.44	-9.3131	-0.6312	-1.1727	-0.0269	0.0788	-0.0208	32.7471	-14.1026	22.0382	0.6150	-0.3451	0.6576	0.2650
2.45	-9.2938	-0.6152	-1.1743	-0.0287	0.0709	-0.0269	32.6002	-13.8965	22.2907	0.6148	-0.3453	0.6577	0.2650
2.46	-9.2711	-0.6192	-1.1939	-0.0290	0.0787	-0.0319	32.6287	-13.7455	22.4113	0.6145	-0.3456	0.6578	0.2649
2.47	-9.3012	-0.6212	-1.1993	-0.0288	0.0812	-0.0312	32.5970	-13.9829	22.5000	0.6143	-0.3458	0.6580	0.2649
2.48	-9.3388	-0.6201	-1.2258	-0.0373	0.0785	-0.0387	33.1437	-13.6034	22.4714	0.6140	-0.3461	0.6581	0.2648
2.49	-9.4057	-0.6110	-1.2401	-0.0372	0.0738	-0.0382	33.0972	-13.7757	22.5019	0.6138	-0.3463	0.6582	0.2647
2.5	-9.4195	-0.6091	-1.2543	-0.0465	0.0637	-0.0375	32.5221	-14.4443	22.3499	0.6136	-0.3466	0.6583	0.2647
2.51	-9.3902	-0.6248	-1.2570	-0.0500	0.0465	-0.0403	32.8217	-14.7753	22.2338	0.6134	-0.3469	0.6583	0.2647
2.52	-9.3235	-0.6386	-1.2417	-0.0534	0.0339	-0.0437	32.3562	-13.9254	22.1400	0.6133	-0.3472	0.6582	0.2648
2.53	-9.2785	-0.6315	-1.2154	-0.0526	0.0282	-0.0381	32.5016	-13.8947	22.3536	0.6131	-0.3475	0.6582	0.2649
2.54	-9.2578	-0.6178	-1.2205	-0.0545	0.0324	-0.0316	32.5431	-13.9299	22.3091	0.6130	-0.3477	0.6581	0.2650
2.55	-9.2709	-0.6101	-1.2321	-0.0562	0.0335	-0.0321	32.6729	-13.9059	22.1524	0.6128	-0.3480	0.6581	0.2651
2.56	-9.2470	-0.6059	-1.2623	-0.0648	0.0348	-0.0326	32.7793	-13.9194	22.2144	0.6127	-0.3482	0.6581	0.2652
2.57	-9.2466	-0.5955	-1.2382	-0.0642	0.0346	-0.0366	32.7037	-13.9120	22.0840	0.6125	-0.3485	0.6580	0.2653
2.58	-9.2398	-0.5964	-1.2295	-0.0650	0.0364	-0.0410	32.4556	-14.0801	22.2488	0.6124	-0.3488	0.6579	0.2654
2.59	-9.2157	-0.6203	-1.2433	-0.0779	0.0381	-0.0454	32.5354	-14.0839	22.1478	0.6122	-0.3492	0.6579	0.2655
2.6	-9.2544	-0.6127	-1.2453	-0.0807	0.0411	-0.0461	32.6491	-14.1946	22.3392	0.6120	-0.3496	0.6578	0.2656
2.61	-9.2573	-0.6011	-1.2567	-0.0793	0.0419	-0.0538	32.7989	-13.9079	22.3548	0.6118	-0.3500	0.6577	0.2657
2.62	-9.2894	-0.5954	-1.2407	-0.0824	0.0317	-0.0618	32.7956	-13.9703	22.2641	0.6116	-0.3504	0.6576	0.2658
2.63	-9.2800	-0.6096	-1.2429	-0.0884	0.0309	-0.0573	32.6318	-14.0114	22.2995	0.6115	-0.3509	0.6575	0.2659
2.64	-9.2567	-0.6100	-1.2409	-0.0963	0.0251	-0.0604	32.6467	-14.0997	22.2865	0.6113	-0.3513	0.6573	0.2661
2.65	-9.2661	-0.6081	-1.2120	-0.1074	0.0197	-0.0692	32.6610	-14.0820	22.2870	0.6112	-0.3518	0.6571	0.2663
2.66	-9.2276	-0.6268	-1.2094	-0.1107	0.0193	-0.0749	32.5810	-14.1095	22.3152	0.6110	-0.3524	0.6569	0.2664
2.67	-9.2181	-0.6392	-1.1881	-0.1239	0.0244	-0.0776	32.5276	-13.9875	22.0916	0.6109	-0.3530	0.6566	0.2666
2.68	-9.2308	-0.6699	-1.1739	-0.1302	0.0370	-0.0844	32.8319	-14.0229	22.1072	0.6107	-0.3536	0.6564	0.2668
2.69	-9.1491	-0.7261	-1.2201	-0.1324	0.0371	-0.0791	32.7749	-13.9559	22.2877	0.6104	-0.3543	0.6562	0.2670
2.7	-9.2109	-0.7380	-1.1777	-0.1353	0.0365	-0.0800	32.6645	-14.1795	22.2891	0.6102	-0.3549	0.6560	0.2672
2.71	-9.2262	-0.7720	-1.1960	-0.1495	0.0546	-0.0829	32.5089	-14.1726	22.2100	0.6099	-0.3556	0.6558	0.2674
2.72	-9.2310	-0.8313	-1.2242	-0.1443	0.0469	-0.0821	32.6418	-13.9335	22.1388	0.6096	-0.3564	0.6556	0.2676
2.73	-9.2229	-0.8780	-1.2389	-0.1324	0.0443	-0.0834	32.8083	-14.0958	21.8872	0.6093	-0.3570	0.6554	0.2678
2.74	-9.2198	-0.9041	-1.2172	-0.1375	0.0366	-0.0852	32.9374	-14.0893	22.0254	0.6091	-0.3577	0.6552	0.2680
2.75	-9.2392	-0.9060	-1.1891	-0.1308	0.0356	-0.0708	32.9761	-14.0878	22.0193	0.6089	-0.3583	0.6549	0.2682
2.76	-9.1919	-0.9104	-1.2128	-0.1295	0.0414	-0.0677	32.7693	-14.0954	21.9978	0.6086	-0.3589	0.6548	0.2684
2.77	-9.2027	-0.9043	-1.1817	-0.1105	0.0409	-0.0717	32.8607	-14.0828	22.0881	0.6084	-0.3595	0.6546	0.2686
2.78	-9.1683	-0.9249	-1.1763	-0.1047	0.0453	-0.0812	32.7130	-14.1004	22.2155	0.6082	-0.3601	0.6545	0.2687
2.79	-9.1455	-0.9399	-1.1686	-0.1007	0.0542	-0.0750	32.7386	-14.1979	22.1997	0.6079	-0.3606	0.6543	0.2687
2.8	-9.1032	-0.9402	-1.1805	-0.1011	0.0632	-0.0745	32.7491	-14.1685	22.1750	0.6077	-0.3612	0.6542	0.2688
2.81	-9.1005	-0.9489	-1.1518	-0.1026	0.0638	-0.0810	32.6420	-14.1919	21.9002	0.6074	-0.3618	0.6542	0.2689
2.82	-9.0507	-0.9772	-1.1784	-0.0832	0.0742	-0.0732	32.6519	-14.0645	21.9355	0.6071	-0.3623	0.6541	0.2688
2.83	-9.0522	-0.9677	-1.1779	-0.0800	0.0860	-0.0728	32.7922	-14.2825	22.0643	0.6068	-0.3628	0.6541	0.2688
2.84	-9.0743	-0.9446	-1.1663	-0.0802	0.0965	-0.0592	32.8693	-14.1561	21.9225	0.6064	-0.3633	0.6542	0.2688
2.85	-9.0438	-0.9568	-1.1603	-0.0800	0.1196	-0.0665	32.5988	-13.8519	21.9152	0.6060	-0.3639	0.6543	0.2687
2.86	-9.0798	-0.9354	-1.1501	-0.0804	0.1307	-0.0594	32.7120	-14.1125	22.0452	0.6056	-0.3644	0.6545	0.2686
2.87	-9.0624	-0.9272	-1.1804	-0.0799	0.1413	-0.0543	32.8788	-14.1881	21.9891	0.6050	-0.3650	0.6547	0.2685
2.88	-9.0768	-0.9205	-1.1616	-0.0803	0.1498	-0.0566	32.7271	-14.1966	22.0988	0.6045	-0.3655	0.6549	0.2684
2.89	-9.0245	-0.8900	-1.1868	-0.0674	0.1591	-0.0573	32.6295	-14.0404	22.3234	0.6039	-0.3661	0.6552	0.2683
2.9	-9.0004	-0.8583	-1.1486	-0.0651	0.1700	-0.0624	32.5240	-13.8881	22.4249	0.6034	-0.3666	0.6555	0.2680
2.91	-8.9798	-0.8570	-1.1620	-0.0824	0.1850	-0.0644	32.6231	-14.1567	22.5204	0.6027	-0.3673	0.6558	0.2679
2.92	-8.8851	-0.8620	-1.2330	-0.0699	0.2159	-0.0795	32.7519	-14.2977	22.2711	0.6020	-0.3680	0.6562	0.2675
2.93	-8.9312	-0.8777	-1.2126	-0.0740	0.2340	-0.0877	32.7205	-14.0934	22.3052	0.6013	-0.3687	0.6566	0.2672
2.94	-8.8752	-0.9398	-1.3156	-0.0817	0.2603	-0.1021	32.7643	-13.9938	22.4540	0.6004	-0.3695	0.6571	0.2667
2.95	-8.8914	-0.9615	-1.3454	-0.0785	0.2804	-0.1010	32.6479	-14.2248	22.5432	0.5995	-0.3704	0.6577	0.2662
2.96	-8.9326	-0.9823	-1.3954	-0.0807	0.3007	-0.0975	32.5536	-14.0385	22.7029	0.5985	-0.3713	0.6583	0.2657
2.97	-8.9346	-0.9985	-1.4606	-0.0776	0.3183	-0.1027	32.6941	-14.0093	22.8718	0.5975	-0.3722	0.6589	0.2652
2.98	-9.0235	-0.9975	-1.4895	-0.0773	0.3310	-0.1016	33.2919	-13.9159	22.6120	0.5964	-0.3732	0.6596	0.2646
2.99	-9.0567	-1.0452	-1.5436	-0.0802	0.3365	-0.1001	33.0963	-13.9074	22.8512	0.5953	-0.3741	0.6603	0.2640
3	-9.0958	-1.0971	-1.6093	-0.0854	0.3397	-0.0927	32.3694	-14.4676	22.7740	0.5941	-0.3751	0.6610	0.2634
3.01	-9.0710	-1.1309	-1.7048	-0.0801	0.3437	-0.0856	32.2608	-15.0249	22.9427	0.5930	-0.3760	0.6617	0.2629
3.02	-9.0685	-1.1431	-1.7481	-0.0807	0.3356	-0.0881	31.9471	-13.8916	23.0274	0.5918	-0.3769	0.6625	0.2623
3.03	-9.0505	-1.1574	-1.7861	-0.0788	0.3321	-0.0837	31.7235	-13.8775	22.9793	0.5907	-0.3778	0.6632	0.2618
3.04	-9.0751	-1.1616	-1.8021	-0.0764	0.3419	-0.0857	32.0602	-13.9019	23.2948	0.5896	-0.3787	0.6639	0.2612
3.05	-9.0577	-1.1733	-1.8620	-0.0741	0.3492	-0.0813	32.1099	-13.8917	23.4545	0.5884	-0.3796	0.6647	0.2606
3.06	-9.0836	-1.1673	-1.9208	-0.0648	0.3581	-0.0767	31.8213	-13.8146	23.4598	0.5872	-0.3804	0.6655	0.2600
3.07	-9.1140	-1.1871	-1.9772	-0.0589	0.3612	-0.0801	31.6547	-13.7856	23.5689	0.5860	-0.3812	0.6663	0.2594
3.08	-9.1155	-1.2187	-2.0520	-0.0543	0.3537	-0.0802	31.8056	-13.9915	23.5347	0.5848	-0.3821	0.6671	0.2587
3.09	-9.1838	-1.2154	-2.0824	-0.0489	0.3490	-0.0753	31.3878	-13.9001	23.6252	0.5837	-0.3828	0.6679	0.2581
3.1	-9.1753	-1.2266	-2.1292	-0.0291	0.3324	-0.0766	31.4995	-13.8926	23.6547	0.5826	-0.3836	0.6687	0.2574
3.11	-9.2096	-1.2114	-2.1415	-0.0304	0.3172	-0.0749	31.4773	-13.9954	23.8868	0.5816	-0.3842	0.6695	0.2567
3.12	-9.1675	-1.1785	-2.1644	-0.0141	0.3010	-0.0745	31.5392	-13.9986	23.7691	0.5807	-0.3849	0.6702	0.2561
3.13	-9.1435	-1.1730	-2.1607	-0.0073	0.2915	-0.0741	31.6142	-14.1992	24.0369	0.5798	-0.3855	0.6708	0.2554
3.14	-9.1535	-1.1811	-2.1757	-0.0031	0.2949	-0.0723	31.4431	-13.9110	23.9929	0.5789	-0.3860	0.6715	0.2547
3.15	-9.1399	-1.1899	-2.2269	-0.0029	0.2974	-0.0739	31.2480	-13.6204	23.8985	0.5780	-0.3866	0.6722	0.2540
3.16	-9.2089	-1.2020	-2.2505	0.0080	0.2937	-0.0796	31.2015	-13.8854	24.1734	0.5771	-0.3872	0.6729	0.2533
3.17	-9.1373	-1.2469	-2.3227	0.0169	0.2794	-0.0805	31.2549	-13.9610	24.2996	0.5763	-0.3877	0.6736	0.2525
3.18	-9.2362	-1.1943	-2.3112	0.0335	0.2565	-0.0687	31.1659	-14.0270	24.5218	0.5756	-0.3881	0.6743	0.2518
3.19	-9.2278	-1.2057	-2.2913	0.0332	0.2418	-0.0765	31.1764	-14.0138	24.4348	0.5750	-0.3885	0.6748	0.2511
3.2	-9.2000	-1.2459	-2.3187	0.0351	0.2335	-0.0756	31.2560	-13.6289	24.5653	0.5744	-0.3889	0.6754	0.2504
3.21	-9.2112	-1.2171	-2.3397	0.0481	0.2253	-0.0692	31.0294	-13.4870	24.5420	0.5738	-0.3892	0.6760	0.2497
3.22	-9.1577	-1.2107	-2.3804	0.0462	0.2128	-0.0631	30.8788	-13.6383	24.5867	0.5733	-0.3895	0.6765	0.2490
3.23	-9.1733	-1.1644	-2.3792	0.0577	0.1875	-0.0489	30.9448	-13.6927	24.9411	0.5728	-0.3897	0.6770	0.2484
3.24	-9.1661	-1.1331	-2.3338	0.0628	0.1716	-0.0409	30.8836	-13.5045	24.8985	0.5724	-0.3898	0.6775	0.2478
3.25	-9.1333	-1.0942	-2.3141	0.0565	0.1557	-0.0451	30.6478	-13.5453	24.9615	0.5721	-0.3899	0.6779	0.2472
3.26	-9.1778	-1.0652	-2.2712	0.0563	0.1521	-0.0457	30.7043	-13.5483	24.8216	0.5717	-0.3900	0.6784	0.2467
3.27	-9.1133	-1.0821	-2.3231	0.0476	0.1497	-0.0518	30.7045	-13.4605	24.9646	0.5714	-0.3902	0.6787	0.2461
3.28	-9.0983	-1.1253	-2.3076	0.0459	0.1356	-0.0505	30.5737	-13.4426	25.2283	0.5711	-0.3903	0.6791	0.2456
3.29	-9.0399	-1.1757	-2.3093	0.0426	0.1232	-0.0478	30.6604	-13.4415	25.0613	0.5708	-0.3904	0.6794	0.2452
3.3	-8.9698	-1.1733	-2.2905	0.0502	0.1121	-0.0451	30.8827	-13.4893	25.1225	0.5706	-0.3905	0.6797	0.2447
3.31	-8.9718	-1.1681	-2.2460	0.0416	0.1125	-0.0382	30.8736	-13.6343	25.1005	0.5704	-0.3906	0.6800	0.2444
3.32	-8.8598	-1.2076	-2.2739	0.0322	0.1269	-0.0481	30.8527	-13.7244	25.1068	0.5701	-0.3908	0.6803	0.2439
3.33	-8.8170	-1.2189	-2.2812	0.0333	0.1259	-0.0386	30.7570	-13.5360	25.2923	0.5698	-0.3909	0.6806	0.2436
3.34	-8.8393	-1.2058	-2.2794	0.0327	0.1429	-0.0398	30.8017	-13.5616	25.2055	0.5694	-0.3911	0.6809	0.2431
3.35	-8.7782	-1.2196	-2.3319	0.0216	0.1603	-0.0402	30.6836	-13.3221	25.2791	0.5690	-0.3913	0.6813	0.2427
3.36	-8.7745	-1.2315	-2.3659	0.0244	0.1625	-0.0315	30.8133	-13.5273	25.4159	0.5686	-0.3915	0.6817	0.2423
3.37	-8.8610	-1.2355	-2.3633	0.0182	0.1825	-0.0331	30.7607	-13.4547	25.1503	0.5680	-0.3917	0.6822	0.2419
3.38	-8.8715	-1.2640	-2.4350	0.0011	0.1900	-0.0308	30.8260	-13.2055	25.3060	0.5674	-0.3920	0.6827	0.2415
3.39	-8.8890	-1.2710	-2.4978	0.0149	0.2016	-0.0277	30.4314	-13.5349	25.3447	0.5668	-0.3922	0.6832	0.2411
3.4	-8.9036	-1.2681	-2.5461	0.0174	0.2039	-0.0281	30.3205	-13.3229	25.4871	0.5662	-0.3924	0.6837	0.2406
3.41	-8.9572	-1.2496	-2.5571	0.0038	0.1911	-0.0290	30.5655	-13.0408	25.7877	0.5656	-0.3927	0.6842	0.2402
3.42	-8.9718	-1.2533	-2.5626	-0.0006	0.1969	-0.0244	30.3950	-13.2115	25.6316	0.5650	-0.3929	0.6847	0.2398
3.43	-8.9324	-1.2609	-2.6267	-0.0005	0.2142	-0.0151	30.2375	-13.2680	25.6331	0.5643	-0.3932	0.6853	0.2394
3.44	-8.9407	-1.2384	-2.6608	0.0019	0.2160	-0.0039	30.0184	-13.1303	25.5253	0.5636	-0.3934	0.6859	0.2391
3.45	-8.9652	-1.2013	-2.7044	-0.0019	0.2127	-0.0029	30.0332	-13.2969	25.9269	0.5629	-0.3936	0.6865	0.2387
3.46	-8.9977	-1.1413	-2.7297	-0.0056	0.2059	-0.0010	30.1863	-13.2345	26.0362	0.5622	-0.3938	0.6870	0.2384
3.47	-8.9697	-1.1192	-2.7605	-0.0220	0.1906	0.0035	30.3168	-13.1978	25.9977	0.5615	-0.3940	0.6876	0.2382
3.48	-9.0117	-1.0934	-2.7472	-0.0271	0.1793	-0.0042	30.7596	-13.0678	26.3055	0.5608	-0.3943	0.6880	0.2380
3.49	-9.0146	-1.0996	-2.7504	-0.0340	0.1794	-0.0025	30.5062	-13.2359	26.2905	0.5602	-0.3945	0.6885	0.2378
3.5	-9.0000	-1.1183	-2.7717	-0.0451	0.1702	-0.0029	30.0498	-13.9461	25.9773	0.5595	-0.3948	0.6889	0.2377
3.51	-9.0059	-1.1194	-2.7664	-0.0538	0.1585	-0.0046	30.1404	-14.3252	26.0701	0.5589	-0.3951	0.6893	0.2376
3.52	-8.9666	-1.1465	-2.7605	-0.0586	0.1395	-0.0049	29.9409	-13.6535	26.0318	0.5583	-0.3954	0.6896	0.2376
3.53	-8.9023	-1.1769	-2.7263	-0.0660	0.1140	-0.0054	29.9726	-13.5047	26.1998	0.5578	-0.3957	0.6898	0.2377
3.54	-8.8798	-1.1969	-2.6644	-0.0589	0.1067	-0.0057	29.9237	-13.4208	26.2230	0.5573	-0.3959	0.6900	0.2377
3.55	-8.8259	-1.2321	-2.6448	-0.0568	0.1118	-0.0044	29.8419	-13.3185	26.3328	0.5569	-0.3962	0.6902	0.2378
3.56	-8.7819	-1.2623	-2.6481	-0.0567	0.1183	-0.0045	29.8907	-13.4587	26.2399	0.5564	-0.3964	0.6905	0.2378
3.57	-8.7830	-1.2752	-2.6328	-0.0478	0.1176	-0.0087	29.8391	-13.6547	26.2724	0.5559	-0.3967	0.6907	0.2378
3.58	-8.7407	-1.3012	-2.6194	-0.0365	0.1271	-0.0185	29.5934	-13.5999	26.5092	0.5554	-0.3969	0.6910	0.2377
3.59	-8.6961	-1.3472	-2.5995	-0.0338	0.1269	-0.0243	29.6181	-13.4261	26.6036	0.5550	-0.3972	0.6913	0.2376
3.6	-8.6719	-1.3836	-2.5811	-0.0277	0.1367	-0.0284	29.4845	-13.4807	26.5261	0.5545	-0.3974	0.6916	0.2374
3.61	-8.5859	-1.4528	-2.5904	-0.0202	0.1517	-0.0299	29.7967	-13.5087	26.3834	0.5540	-0.3977	0.6919	0.2372
3.62	-8.5697	-1.5024	-2.5928	-0.0071	0.1637	-0.0292	29.6823	-13.4514	26.2879	0.5534	-0.3980	0.6922	0.2369
3.63	-8.6011	-1.5387	-2.5702	0.0184	0.1862	-0.0278	29.4680	-13.3581	26.5200	0.5529	-0.3982	0.6927	0.2365
3.64	-8.6103	-1.5742	-2.5947	0.0206	0.1996	-0.0271	29.6508	-13.3881	26.5138	0.5523	-0.3984	0.6932	0.2360
3.65	-8.6908	-1.5635	-2.5765	0.0275	0.2129	-0.0284	29.5411	-13.2814	26.5381	0.5517	-0.3986	0.6938	0.2355
3.66	-8.7146	-1.5607	-2.5915	0.0438	0.2222	-0.0247	29.5053	-13.3920	26.7024	0.5510	-0.3988	0.6944	0.2349
3.67	-8.7784	-1.5377	-2.5763	0.0466	0.2247	-0.0300	29.5094	-13.5510	26.7115	0.5504	-0.3989	0.6950	0.2343
3.68	-8.7608	-1.5469	-2.6021	0.0494	0.2476	-0.0323	29.5210	-13.6758	26.6964	0.5497	-0.3992	0.6957	0.2336
3.69	-8.7828	-1.5729	-2.6135	0.0475	0.2516	-0.0285	29.4726	-13.4928	26.9179	0.5490	-0.3994	0.6963	0.2330
3.7	-8.7889	-1.6157	-2.6505	0.0462	0.2636	-0.0303	29.3324	-13.4545	26.7716	0.5482	-0.3996	0.6970	0.2323
3.71	-8.7748	-1.6401	-2.7118	0.0494	0.2636	-0.0279	29.2331	-13.3125	26.8331	0.5474	-0.3998	0.6978	0.2316
3.72	-8.8041	-1.6256	-2.7357	0.0660	0.2629	-0.0150	29.1170	-13.4757	26.9820	0.5467	-0.3999	0.6985	0.2309
3.73	-8.7269	-1.6445	-2.7997	0.0745	0.2685	-0.0047	29.2073	-13.4538	27.0919	0.5459	-0.4000	0.6993	0.2301
3.74	-8.5973	-1.6695	-2.8529	0.0733	0.2764	0.0019	28.9532	-13.2246	27.2719	0.5451	-0.4000	0.7001	0.2294
3.75	-8.5267	-1.6705	-2.8824	0.0939	0.2873	0.0171	28.8945	-13.4001	27.2590	0.5443	-0.4000	0.7010	0.2286
3.76	-8.4609	-1.6492	-2.9413	0.1186	0.3236	0.0376	28.8396	-13.1888	27.5457	0.5434	-0.3999	0.7021	0.2278
3.77	-8.4323	-1.5797	-3.0307	0.1259	0.3459	0.0570	28.7928	-13.4102	27.5113	0.5424	-0.3997	0.7033	0.2269
3.78	-8.4662	-1.4847	-3.0840	0.1485	0.3692	0.0735	28.7043	-13.2169	27.5273	0.5413	-0.3994	0.7046	0.2259
3.79	-8.4958	-1.3968	-3.1314	0.1532	0.3806	0.0888	28.7299	-13.0943	27.7974	0.5402	-0.3990	0.7060	0.2249
3.8	-8.6334	-1.2814	-3.1776	0.1608	0.4018	0.1015	28.6299	-13.2302	27.9769	0.5390	-0.3986	0.7074	0.2239
3.81	-8.7531	-1.1554	-3.2661	0.1724	0.4222	0.1098	28.3194	-13.0698	28.0485	0.5378	-0.3982	0.7089	0.2228
3.82	-8.8409	-1.0113	-3.3689	0.1612	0.4138	0.1128	28.1742	-13.3171	28.2203	0.5365	-0.3978	0.7105	0.2218
3.83	-8.8916	-0.9092	-3.4442	0.1459	0.3921	0.1065	28.3073	-13.0794	28.2428	0.5353	-0.3974	0.7119	0.2209
3.84	-8.9317	-0.8401	-3.4670	0.1261	0.3434	0.1046	28.1907	-13.1563	28.3343	0.5342	-0.3970	0.7132	0.2201
3.85	-8.9375	-0.7988	-3.4481	0.1064	0.3010	0.1044	28.1603	-13.2925	28.3467	0.5332	-0.3966	0.7143	0.2194
3.86	-8.8118	-0.8002	-3.4631	0.0880	0.2859	0.0979	27.9665	-13.2519	28.5037	0.5323	-0.3963	0.7154	0.2189
3.87	-8.7017	-0.7784	-3.4899	0.0709	0.2860	0.0910	28.1882	-13.2975	28.7173	0.5313	-0.3960	0.7164	0.2184
3.88	-8.7168	-0.7235	-3.5039	0.0483	0.2851	0.0851	27.8009	-13.1597	28.7881	0.5303	-0.3958	0.7173	0.2179
3.89	-8.7332	-0.7042	-3.5335	0.0279	0.2900	0.0696	27.7394	-13.3119	28.8310	0.5293	-0.3957	0.7183	0.2175
3.9	-8.7444	-0.7039	-3.5855	-0.0004	0.2802	0.0535	27.5318	-13.3417	28.9264	0.5283	-0.3958	0.7191	0.2172
3.91	-8.7594	-0.6878	-3.6173	-0.0196	0.2750	0.0410	27.4382	-13.2202	28.8680	0.5272	-0.3959	0.7199	0.2169
3.92	-8.7450	-0.6807	-3.6515	-0.0517	0.2593	0.0372	27.4766	-13.3917	29.0169	0.5261	-0.3961	0.7206	0.2167
3.93	-8.7047	-0.6709	-3.6885	-0.0776	0.2510	0.0413	27.3447	-13.4374	28.9683	0.5251	-0.3964	0.7213	0.2167
3.94	-8.6503	-0.6371	-3.7265	-0.0895	0.2361	0.0464	27.1873	-13.3111	29.2415	0.5240	-0.3967	0.7219	0.2167
3.95	-8.5849	-0.5827	-3.7549	-0.1124	0.2236	0.0461	26.9929	-13.4611	29.2643	0.5229	-0.3970	0.7224	0.2168
3.96	-8.5977	-0.5481	-3.7448	-0.1506	0.2202	0.0419	26.9310	-13.4314	29.2938	0.5218	-0.3974	0.7229	0.2171
3.97	-8.5466	-0.5760	-3.7854	-0.1794	0.2190	0.0230	27.2093	-13.4757	29.4973	0.5207	-0.3979	0.7234	0.2175
3.98	-8.5323	-0.6106	-3.8280	-0.1979	0.2088	0.0246	27.5934	-13.3330	29.6855	0.5195	-0.3985	0.7237	0.2179
3.99	-8.6075	-0.6518	-3.8436	-0.2219	0.2028	0.0105	27.2909	-13.4744	29.5508	0.5184	-0.3992	0.7240	0.2184
4	-8.5133	-0.8119	-3.9117	-0.2441	0.2048	-0.0001	26.8758	-14.2523	29.2886	0.5172	-0.4000	0.7243	0.2189
4.01	-8.4433	-0.9498	-3.9851	-0.2437	0.1960	0.0001	26.7240	-14.6896	29.3283	0.5160	-0.4008	0.7245	0.2195
4.02	-8.3997	-1.0300	-4.0204	-0.2343	0.1954	0.0074	26.4559	-13.7884	29.3980	0.5148	-0.4015	0.7248	0.2201
4.03	-8.3583	-1.0664	-4.0547	-0.2325	0.1900	0.0126	26.5634	-13.8831	29.4416	0.5137	-0.4022	0.7251	0.2206
4.04	-8.3677	-1.0215	-4.0856	-0.2010	0.1745	0.0110	26.5536	-14.1724	29.1509	0.5126	-0.4028	0.7253	0.2211
4.05	-8.4173	-0.9552	-4.0843	-0.1886	0.1760	0.0085	26.7416	-14.1107	29.1625	0.5116	-0.4034	0.7256	0.2215
4.06	-8.4269	-0.9300	-4.1138	-0.1874	0.1801	-0.0031	26.7725	-14.3370	29.1524	0.5106	-0.4041	0.7258	0.2219
4.07	-8.4384	-0.9101	-4.1620	-0.1835	0.1748	-0.0049	26.8073	-14.5332	29.1712	0.5096	-0.4047	0.7260	0.2223
4.08	-8.3542	-0.9456	-4.2034	-0.1853	0.1628	-0.0071	26.6502	-14.5050	29.3246	0.5087	-0.4053	0.7262	0.2227
4.09	-8.3373	-1.0017	-4.2227	-0.1681	0.1535	-0.0127	26.3707	-14.4878	29.3580	0.5078	-0.4059	0.7264	0.2230
4.1	-8.3777	-1.0603	-4.2280	-0.1657	0.1415	-0.0210	26.4363	-14.6186	29.3369	0.5070	-0.4065	0.7265	0.2234
4.11	-8.4128	-1.1041	-4.2359	-0.1506	0.1391	-0.0178	26.2810	-14.8031	29.3723	0.5062	-0.4070	0.7267	0.2237
4.12	-8.4395	-1.0975	-4.2569	-0.1314	0.1418	-0.0151	26.3575	-14.7718	29.2956	0.5055	-0.4075	0.7268	0.2239
4.13	-8.4433	-1.0992	-4.2593	-0.1038	0.1184	-0.0063	26.2353	-14.7073	29.2240	0.5048	-0.4079	0.7270	0.2241
4.14	-8.4338	-1.0943	-4.2528	-0.0838	0.0786	0.0101	26.1262	-14.4698	29.3924	0.5044	-0.4081	0.7271	0.2243
4.15	-8.4786	-1.0187	-4.1925	-0.0750	0.0505	0.0226	26.1691	-14.5247	29.4354	0.5040	-0.4082	0.7272	0.2246
4.16	-8.4435	-0.9439	-4.1206	-0.0431	0.0317	0.0250	26.0835	-14.5014	29.4878	0.5038	-0.4082	0.7273	0.2249
4.17	-8.4020	-0.8657	-4.0542	-0.0320	0.0237	0.0335	25.9558	-14.5009	29.6534	0.5036	-0.4082	0.7274	0.2251
4.18	-8.2988	-0.8026	-4.0378	-0.0207	0.0340	0.0497	25.9687	-14.7576	29.4731	0.5034	-0.4080	0.7276	0.2253
4.19	-8.2866	-0.7077	-4.0273	-0.0031	0.0550	0.0508	25.9688	-14.7562	29.6310	0.5032	-0.4079	0.7278	0.2254
4.2	-8.3165	-0.6369	-4.0397	-0.0026	0.0735	0.0552	25.9601	-14.8630	29.5507	0.5029	-0.4077	0.7281	0.2255
4.21	-8.3012	-0.5991	-4.1006	-0.0061	0.0799	0.0446	25.9754	-14.7604	29.4327	0.5025	-0.4076	0.7283	0.2255
4.22	-8.2960	-0.5509	-4.1302	-0.0161	0.0670	0.0438	26.0862	-14.6541	29.4160	0.5022	-0.4075	0.7286	0.2256
4.23	-8.2715	-0.4922	-4.1089	-0.0253	0.0531	0.0427	26.0262	-14.9529	29.3097	0.5019	-0.4074	0.7288	0.2258
4.24	-8.2258	-0.4700	-4.0659	-0.0507	0.0556	0.0360	26.1516	-14.9343	29.4656	0.5016	-0.4073	0.7289	0.2260
4.25	-8.1719	-0.4831	-4.0371	-0.0739	0.0627	0.0253	26.2542	-14.9759	29.5545	0.5012	-0.4074	0.7291	0.2263
4.26	-8.1610	-0.4867	-4.0403	-0.0836	0.0851	0.0188	26.0298	-15.0419	29.3502	0.5008	-0.4076	0.7292	0.2265
4.27	-8.2170	-0.4651	-4.0721	-0.1089	0.1205	0.0205	25.8532	-15.0961	29.4244	0.5001	-0.4079	0.7294	0.2268
4.28	-8.2493	-0.4799	-4.1375	-0.1402	0.1307	0.0109	25.9774	-15.2340	29.5694	0.4994	-0.4083	0.7296	0.2272
4.29	-8.2500	-0.5327	-4.1962	-0.1630	0.1218	0.0141	26.0856	-15.2058	29.5317	0.4986	-0.4087	0.7298	0.2276
4.3	-8.3503	-0.5548	-4.1787	-0.1786	0.1082	0.0185	25.7772	-15.4106	29.5679	0.4978	-0.4091	0.7299	0.2281
4.31	-8.3199	-0.6071	-4.1862	-0.1948	0.0969	0.0173	25.8686	-15.3000	29.4569	0.4971	-0.4096	0.7299	0.2288
4.32	-8.2736	-0.6291	-4.2027	-0.2067	0.0870	0.0166	25.9773	-15.1943	29.4405	0.4963	-0.4101	0.7300	0.2294
4.33	-8.3493	-0.6243	-4.1602	-0.2197	0.1004	0.0179	25.6482	-15.0642	29.4779	0.4955	-0.4106	0.7300	0.2301
4.34	-8.3677	-0.7083	-4.1719	-0.2340	0.1226	0.0084	25.5247	-15.3248	29.6502	0.4946	-0.4112	0.7300	0.2308
4.35	-8.3614	-0.8009	-4.2332	-0.2383	0.1330	-0.0006	25.4962	-15.6253	29.5538	0.4937	-0.4119	0.7301	0.2315
4.36	-8.3268	-0.8694	-4.2916	-0.2250	0.1409	0.0074	25.6640	-15.5070	29.4052	0.4927	-0.4126	0.7302	0.2321
4.37	-8.3306	-0.9392	-4.3270	-0.2077	0.1453	0.0142	25.6940	-15.4929	29.5555	0.4917	-0.4131	0.7303	0.2327
4.38	-8.4015	-1.0161	-4.3580	-0.1977	0.1426	0.0112	25.7096	-15.7513	29.4736	0.4908	-0.4137	0.7305	0.2332
4.39	-8.4207	-1.0561	-4.4076	-0.1672	0.1323	0.0246	25.4605	-15.7471	29.3578	0.4899	-0.4141	0.7306	0.2337
4.4	-8.4643	-1.0225	-4.4405	-0.1299	0.1166	0.0508	25.2765	-15.7310	29.5071	0.4892	-0.4144	0.7309	0.2342
4.41	-8.4112	-0.9597	-4.4708	-0.0844	0.0840	0.0664	25.4186	-15.7900	29.4198	0.4886	-0.4144	0.7311	0.2345
4.42	-8.3912	-0.8652	-4.4410	-0.0561	0.0455	0.0802	25.4966	-16.0193	29.6038	0.4882	-0.4142	0.7313	0.2349
4.43	-8.4205	-0.7612	-4.3822	-0.0292	0.0347	0.0946	25.6630	-16.1270	29.3907	0.4880	-0.4140	0.7316	0.2352
4.44	-8.3918	-0.6484	-4.3627	-0.0006	0.0205	0.0964	25.6480	-16.2150	29.4382	0.4878	-0.4136	0.7318	0.2355
4.45	-8.4130	-0.5206	-4.3239	0.0214	0.0158	0.0925	25.5671	-16.0846	29.4906	0.4877	-0.4131	0.7321	0.2357
4.46	-8.3629	-0.4629	-4.3008	0.0397	0.0032	0.0782	25.6214	-16.1889	29.3701	0.4876	-0.4127	0.7323	0.2358
4.47	-8.3546	-0.4577	-4.2507	0.0445	0.0012	0.0654	25.7186	-16.1855	29.5163	0.4877	-0.4123	0.7325	0.2359
4.48	-8.4164	-0.4623	-4.2017	0.0485	0.0139	0.0597	26.0814	-15.8905	29.6738	0.4877	-0.4119	0.7327	0.2359
4.49	-8.4010	-0.4692	-4.2555	0.0663	0.0388	0.0633	25.7607	-16.0115	29.7223	0.4876	-0.4115	0.7330	0.2358
4.5	-8.4068	-0.4413	-4.3070	0.0920	0.0503	0.0653	25.1030	-16.6104	29.5782	0.4876	-0.4110	0.7334	0.2356
4.51	-8.4220	-0.4195	-4.3330	0.1047	0.0331	0.0647	25.1981	-17.0005	29.5907	0.4876	-0.4105	0.7337	0.2354
4.52	-8.4891	-0.3811	-4.2994	0.1157	0.0100	0.0627	25.0166	-15.9964	29.8628	0.4877	-0.4100	0.7340	0.2352
4.53	-8.5050	-0.3515	-4.2544	0.1223	-0.0044	0.0674	25.0618	-16.0923	29.7537	0.4879	-0.4094	0.7343	0.2350
4.54	-8.4958	-0.3004	-4.2219	0.1246	-0.0093	0.0614	25.0071	-16.1403	29.6493	0.4881	-0.4088	0.7345	0.2347
4.55	-8.5388	-0.2277	-4.1966	0.1265	-0.0099	0.0567	25.1141	-16.2215	29.6806	0.4884	-0.4082	0.7348	0.2345
4.56	-8.5132	-0.2016	-4.2011	0.1218	-0.0152	0.0419	25.1398	-16.1036	29.7405	0.4887	-0.4076	0.7350	0.2343
4.57	-8.5085	-0.2047	-4.1964	0.1149	-0.0218	0.0291	24.9196	-15.9857	29.9063	0.4889	-0.4072	0.7351	0.2340
4.58	-8.5031	-0.1982	-4.1833	0.1066	-0.0342	0.0268	24.9506	-16.0621	29.7873	0.4893	-0.4067	0.7352	0.2338
4.59	-8.4756	-0.1878	-4.1412	0.0961	-0.0448	0.0204	25.0061	-16.1365	30.0513	0.4896	-0.4063	0.7353	0.2337
4.6	-8.4485	-0.2074	-4.1021	0.0768	-0.0435	0.0199	25.1504	-15.9755	29.9335	0.4899	-0.4059	0.7353	0.2336
4.61	-8.4816	-0.2170	-4.0986	0.0724	-0.0238	0.0156	25.2482	-16.1884	29.7287	0.4902	-0.4056	0.7353	0.2335
4.62	-8.5153	-0.2397	-4.1440	0.0682	-0.0027	0.0132	25.1513	-16.3080	29.7600	0.4903	-0.4053	0.7354	0.2334
4.63	-8.5053	-0.2685	-4.2293	0.0513	-0.0052	0.0166	25.1246	-15.8878	29.5193	0.4904	-0.4050	0.7355	0.2333
4.64	-8.5302	-0.2593	-4.2597	0.0593	-0.0288	0.0168	25.0269	-16.0577	29.8430	0.4907	-0.4047	0.7356	0.2332
4.65	-8.5287	-0.2459	-4.2347	0.0502	-0.0558	0.0037	25.2082	-16.0974	29.8196	0.4910	-0.4045	0.7355	0.2332
4.66	-8.5244	-0.2230	-4.1888	0.0499	-0.0653	-0.0004	25.1851	-15.9074	29.7327	0.4913	-0.4042	0.7354	0.2332
4.67	-8.5393	-0.2082	-4.1587	0.0377	-0.0634	-0.0062	24.9204	-15.9517	29.7898	0.4916	-0.4040	0.7353	0.2333
4.68	-8.5439	-0.2177	-4.1957	0.0222	-0.0518	-0.0102	24.9698	-15.7774	29.5954	0.4919	-0.4039	0.7352	0.2333
4.69	-8.6281	-0.2385	-4.2319	0.0086	-0.0488	-0.0165	24.9310	-15.9545	29.7975	0.4922	-0.4038	0.7350	0.2334
4.7	-8.6789	-0.2685	-4.2708	-0.0068	-0.0714	-0.0216	25.0292	-15.7553	29.8943	0.4924	-0.4037	0.7348	0.2336
4.71	-8.7038	-0.2651	-4.2731	-0.0222	-0.1172	-0.0096	25.1550	-15.7608	29.6116	0.4928	-0.4036	0.7345	0.2339
4.72	-8.6473	-0.2720	-4.2317	-0.0353	-0.1627	-0.0100	25.1105	-15.8462	29.8598	0.4934	-0.4035	0.7340	0.2344
4.73	-8.5690	-0.3029	-4.1463	-0.0573	-0.1881	-0.0111	25.1854	-15.8936	29.7948	0.4940	-0.4034	0.7335	0.2350
4.74	-8.4538	-0.3784	-4.0746	-0.0738	-0.2101	-0.0103	25.3279	-15.9457	29.6676	0.4946	-0.4033	0.7329	0.2357
4.75	-8.3170	-0.4338	-4.0473	-0.0792	-0.1969	-0.0115	25.2929	-15.8076	29.5398	0.4952	-0.4032	0.7323	0.2365
4.76	-8.3036	-0.4068	-4.0145	-0.0818	-0.1844	-0.0114	25.3476	-15.8676	29.6289	0.4958	-0.4032	0.7317	0.2372
4.77	-8.3515	-0.3498	-3.9910	-0.1021	-0.1787	-0.0045	25.4831	-16.0513	29.4118	0.4962	-0.4032	0.7312	0.2380
4.78	-8.3837	-0.3184	-4.0136	-0.1238	-0.1663	0.0041	25.5870	-15.8702	29.2984	0.4966	-0.4032	0.7306	0.2388
4.79	-8.3629	-0.2882	-4.0327	-0.1550	-0.1740	0.0058	25.5715	-16.0261	29.2721	0.4969	-0.4033	0.7300	0.2398
4.8	-8.4209	-0.2152	-4.0113	-0.1890	-0.1849	0.0030	25.5786	-16.0952	28.9645	0.4973	-0.4035	0.7293	0.2409
4.81	-8.5271	-0.1931	-3.9922	-0.2435	-0.1778	0.0086	25.5607	-16.2783	28.8344	0.4974	-0.4037	0.7286	0.2422
4.82	-8.5796	-0.2072	-4.0707	-0.2816	-0.1643	0.0154	25.6922	-16.4680	28.8828	0.4975	-0.4041	0.7279	0.2437
4.83	-8.6610	-0.1937	-4.1135	-0.3097	-0.1722	0.0306	25.9415	-16.5247	28.9544	0.4974	-0.4045	0.7272	0.2453
4.84	-8.8429	-0.1290	-4.1859	-0.3545	-0.1849	0.0596	25.8624	-16.6837	28.7311	0.4973	-0.4049	0.7264	0.2471
4.85	-8.9305	-0.0450	-4.2921	-0.3769	-0.2148	0.0821	25.7229	-16.5978	28.9022	0.4973	-0.4052	0.7256	0.2492
4.86	-9.0341	-0.0344	-4.2973	-0.4206	-0.2692	0.0851	25.8935	-16.6555	28.5509	0.4973	-0.4055	0.7246	0.2515
4.87	-9.0492	-0.0444	-4.3113	-0.4719	-0.3558	0.1008	25.9527	-16.6248	28.4990	0.4975	-0.4058	0.7233	0.2542
4.88	-9.0667	-0.0017	-4.2163	-0.4939	-0.4277	0.1241	26.2130	-16.9796	28.3700	0.4979	-0.4060	0.7219	0.2572
4.89	-9.0537	0.0563	-4.1049	-0.5187	-0.4736	0.1319	26.0620	-17.3926	27.9575	0.4983	-0.4062	0.7203	0.2604
4.9	-8.9941	0.0778	-4.0252	-0.5573	-0.5111	0.1404	26.0019	-17.3353	27.9955	0.4989	-0.4063	0.7187	0.2638
4.91	-8.9780	0.1267	-3.9648	-0.5788	-0.5289	0.1369	26.2387	-17.7924	27.8522	0.4994	-0.4065	0.7169	0.2674
4.92	-8.9935	0.1581	-3.8985	-0.6103	-0.5437	0.1259	26.4692	-17.7513	27.4921	0.5000	-0.4067	0.7150	0.2710
4.93	-8.9938	0.1315	-3.8521	-0.6428	-0.5703	0.1136	26.4378	-17.9438	27.2523	0.5005	-0.4071	0.7129	0.2748
4.94	-9.0096	0.1010	-3.8216	-0.6627	-0.5892	0.1079	26.4681	-18.2896	26.8782	0.5012	-0.4074	0.7108	0.2787
4.95	-8.9814	0.0895	-3.7953	-0.6728	-0.6056	0.1117	26.7015	-18.6740	26.5992	0.5018	-0.4078	0.7085	0.2826
4.96	-8.9451	0.0668	-3.7351	-0.6866	-0.6498	0.1075	26.8085	-18.8235	26.4424	0.5025	-0.4082	0.7062	0.2867
4.97	-8.9608	0.0505	-3.6403	-0.7015	-0.6835	0.1113	27.2278	-18.9213	26.2186	0.5033	-0.4085	0.7037	0.2909
4.98	-8.9041	0.0008	-3.5539	-0.6970	-0.7013	0.1212	27.6611	-18.7676	25.9401	0.5042	-0.4087	0.7012	0.2951
4.99	-8.8806	-0.0174	-3.4661	-0.6968	-0.7312	0.1199	27.7518	-19.1868	25.6454	0.5052	-0.4089	0.6986	0.2994
5	-8.9461	0.0134	-3.3775	-0.6795	-0.7210	0.1379	27.6747	-20.3958	25.0047	0.5061	-0.4090	0.6960	0.3037
5.01	-9.0007	0.0263	-3.3697	-0.6723	-0.7031	0.1416	27.6425	-20.9052	24.7735	0.5069	-0.4090	0.6935	0.3079
5.02	-9.0047	0.0186	-3.3730	-0.6734	-0.7199	0.1446	27.7503	-20.1167	24.4943	0.5078	-0.4091	0.6909	0.3121
5.03	-8.9917	0.0284	-3.3288	-0.6517	-0.7566	0.1492	27.7299	-20.1329	24.2015	0.5089	-0.4090	0.6883	0.3163
5.04	-8.9995	0.0306	-3.1849	-0.6395	-0.8149	0.1526	27.9128	-20.5632	23.9183	0.5101	-0.4087	0.6855	0.3206
5.05	-9.0027	0.0471	-3.0038	-0.6124	-0.8420	0.1685	28.0809	-20.7945	23.3754	0.5114	-0.4083	0.6828	0.3250
5.06	-9.0131	0.0743	-2.8358	-0.5904	-0.8541	0.1699	28.1854	-20.9772	23.1289	0.5129	-0.4077	0.6800	0.3292
5.07	-9.0246	0.1078	-2.7392	-0.5711	-0.8276	0.1777	28.2734	-21.1873	22.6872	0.5142	-0.4072	0.6772	0.3334
5.08	-9.0286	0.1335	-2.7075	-0.5417	-0.8026	0.1858	28.4638	-21.0436	22.3183	0.5155	-0.4065	0.6746	0.3374
5.09	-8.9834	0.1453	-2.6772	-0.5108	-0.8182	0.1976	28.6099	-21.6210	22.0667	0.5169	-0.4057	0.6721	0.3413
5.1	-9.0503	0.2345	-2.5917	-0.4783	-0.8345	0.2149	28.7418	-21.5864	21.8332	0.5184	-0.4048	0.6695	0.3453
5.11	-9.1852	0.3881	-2.4905	-0.4495	-0.8572	0.2290	28.6492	-21.7629	21.6188	0.5199	-0.4036	0.6670	0.3491
5.12	-9.1154	0.4702	-2.3926	-0.4239	-0.8815	0.2255	28.6842	-21.9527	21.1196	0.5216	-0.4023	0.6644	0.3530
5.13	-9.0417	0.5522	-2.2327	-0.3949	-0.9156	0.2277	28.9993	-22.0315	20.8746	0.5234	-0.4009	0.6618	0.3568
5.14	-9.0294	0.6519	-2.0107	-0.3788	-0.9300	0.2230	29.0674	-22.1661	20.4957	0.5253	-0.3995	0.6592	0.3606
5.15	-9.0293	0.7210	-1.7961	-0.3605	-0.9027	0.2058	29.3454	-22.4181	20.2426	0.5272	-0.3980	0.6566	0.3642
5.16	-8.9067	0.7400	-1.6834	-0.3380	-0.8622	0.2032	29.2816	-22.5736	19.8510	0.5290	-0.3966	0.6541	0.3676
5.17	-8.9593	0.8407	-1.6407	-0.3104	-0.8061	0.2062	29.5245	-22.7282	19.4705	0.5306	-0.3952	0.6517	0.3708
5.18	-9.1355	0.9923	-1.7293	-0.2935	-0.7538	0.2005	29.7090	-23.2900	19.1077	0.5321	-0.3938	0.6496	0.3739
5.19	-9.2807	1.1156	-1.8308	-0.2877	-0.7709	0.1908	29.6585	-23.1906	18.6928	0.5337	-0.3924	0.6474	0.3769
5.2	-9.2972	1.1561	-1.7644	-0.2711	-0.8313	0.1800	29.6812	-23.3643	18.5448	0.5355	-0.3909	0.6450	0.3799
5.21	-9.1179	1.1935	-1.6002	-0.2654	-0.8919	0.1738	29.6614	-23.4629	18.2547	0.5375	-0.3893	0.6425	0.3831
5.22	-9.0162	1.3112	-1.3575	-0.2429	-0.9092	0.1582	29.8247	-23.5414	17.9250	0.5396	-0.3877	0.6399	0.3861
5.23	-9.0847	1.4658	-1.1640	-0.2440	-0.8688	0.1427	29.8570	-23.6816	17.5339	0.5416	-0.3861	0.6374	0.3890
5.24	-9.2957	1.6003	-1.1078	-0.2677	-0.8197	0.1216	29.8262	-23.7064	17.3117	0.5435	-0.3847	0.6349	0.3919
5.25	-9.6252	1.6153	-1.1462	-0.2836	-0.7999	0.1024	30.0932	-23.9842	17.0518	0.5453	-0.3835	0.6324	0.3946
5.26	-9.6844	1.6123	-1.2466	-0.2906	-0.8511	0.0935	30.2603	-24.0158	16.7206	0.5472	-0.3823	0.6297	0.3975
5.27	-9.4784	1.6650	-1.1163	-0.2858	-0.9404	0.0865	30.0785	-23.9349	16.5336	0.5494	-0.3808	0.6267	0.4005
5.28	-9.1704	1.7159	-0.8529	-0.2904	-0.9994	0.0734	30.2343	-23.8978	16.1632	0.5518	-0.3793	0.6236	0.4035
5.29	-8.9880	1.7537	-0.5658	-0.3183	-0.9863	0.0544	30.4124	-24.0840	15.8198	0.5541	-0.3779	0.6203	0.4066
5.3	-9.0648	1.8171	-0.3638	-0.3527	-0.9009	0.0171	30.5847	-24.2907	15.4736	0.5563	-0.3769	0.6171	0.4095
5.31	-9.1481	1.7682	-0.4224	-0.3867	-0.8001	-0.0189	30.7496	-24.1846	15.1041	0.5581	-0.3763	0.6141	0.4122
5.32	-9.3524	1.6670	-0.5728	-0.4146	-0.7571	-0.0431	30.7292	-24.2893	14.8929	0.5597	-0.3759	0.6110	0.4149
5.33	-9.5236	1.5949	-0.5737	-0.4288	-0.7780	-0.0383	30.8749	-24.4271	14.4484	0.5613	-0.3755	0.6079	0.4176
5.34	-9.4438	1.5669	-0.4505	-0.4152	-0.8359	-0.0254	30.9824	-24.2367	14.0492	0.5631	-0.3750	0.6047	0.4204
5.35	-9.4022	1.5811	-0.2242	-0.4246	-0.8748	-0.0082	31.0841	-24.5042	13.6233	0.5649	-0.3743	0.6013	0.4233
5.36	-9.3800	1.5533	-0.0619	-0.4343	-0.8827	-0.0003	31.2297	-24.7619	13.2561	0.5668	-0.3736	0.5979	0.4263
5.37	-9.2401	1.4474	0.0108	-0.4238	-0.8793	0.0035	31.4629	-24.5654	12.9398	0.5686	-0.3728	0.5945	0.4293
5.38	-9.2074	1.4048	0.0940	-0.4099	-0.8861	0.0101	31.7215	-24.7627	12.4660	0.5704	-0.3720	0.5911	0.4323
5.39	-9.2816	1.4031	0.1962	-0.3890	-0.8943	0.0022	31.7819	-24.6943	12.1270	0.5723	-0.3711	0.5877	0.4352
5.4	-9.1765	1.3267	0.2578	-0.3693	-0.9158	-0.0071	31.8441	-25.0883	11.9022	0.5743	-0.3701	0.5843	0.4380
5.41	-9.0673	1.2595	0.4289	-0.3402	-0.9551	-0.0184	31.8774	-24.9600	11.4779	0.5764	-0.3690	0.5808	0.4408
5.42	-8.8941	1.1956	0.6460	-0.3107	-0.9752	-0.0421	31.9066	-24.7935	11.1966	0.5787	-0.3677	0.5772	0.4434
5.43	-8.7421	1.0892	0.8136	-0.2744	-0.9580	-0.0610	31.9280	-25.0666	10.6085	0.5811	-0.3665	0.5737	0.4459
5.44	-8.8223	1.0308	0.9228	-0.2438	-0.9113	-0.0776	31.9379	-24.9664	10.1832	0.5834	-0.3653	0.5704	0.4481
5.45	-8.8679	0.9721	0.9068	-0.1981	-0.8865	-0.0967	32.2476	-25.0520	10.0684	0.5858	-0.3641	0.5672	0.4501
5.46	-8.8760	0.9405	0.9240	-0.1504	-0.9108	-0.1010	32.2545	-24.8557	10.0021	0.5883	-0.3627	0.5640	0.4519
5.47	-8.8752	0.9622	1.0876	-0.0968	-0.9357	-0.1119	32.4614	-24.8768	9.7355	0.5910	-0.3612	0.5608	0.4537
5.48	-8.8421	0.9555	1.2707	-0.0455	-0.9405	-0.1265	32.8641	-24.6553	9.3083	0.5938	-0.3595	0.5577	0.4552
5.49	-8.8201	0.9453	1.4193	-0.0055	-0.9297	-0.1275	32.7645	-24.8571	8.9740	0.5966	-0.3576	0.5547	0.4566
5.5	-8.9484	1.0023	1.5366	0.0345	-0.9091	-0.1343	32.4762	-25.7059	8.4355	0.5995	-0.3558	0.5518	0.4578
5.51	-9.0953	0.9943	1.5496	0.0530	-0.8946	-0.1483	32.7187	-26.0536	8.3235	0.6024	-0.3539	0.5490	0.4588
5.52	-9.1767	0.9976	1.5150	0.0776	-0.9059	-0.1579	32.5709	-24.6739	8.0097	0.6053	-0.3519	0.5462	0.4598
5.53	-9.1996	1.0412	1.5611	0.1108	-0.9437	-0.1577	32.7222	-24.6575	7.7242	0.6084	-0.3498	0.5433	0.4608
5.54	-9.0549	1.0334	1.6612	0.1419	-0.9726	-0.1706	32.8284	-24.8193	7.1388	0.6116	-0.3475	0.5404	0.4616
5.55	-8.8728	1.0374	1.8327	0.1596	-0.9834	-0.1744	33.3384	-24.7041	7.1412	0.6149	-0.3452	0.5374	0.4624
5.56	-8.7762	1.0358	2.0380	0.1774	-0.9585	-0.1753	33.2219	-24.5741	7.1402	0.6182	-0.3428	0.5346	0.4632
5.57	-8.7447	1.0295	2.1655	0.1802	-0.9048	-0.1722	33.2567	-24.6222	6.5919	0.6213	-0.3405	0.5319	0.4638
5.58	-8.6894	1.0180	2.2036	0.2011	-0.8588	-0.1683	33.4908	-24.5201	6.4920	0.6243	-0.3383	0.5294	0.4642
5.59	-8.6908	1.0291	2.2929	0.2104	-0.8165	-0.1519	33.5710	-24.2753	6.0609	0.6272	-0.3361	0.5271	0.4646
5.6	-8.7284	1.0452	2.3056	0.2085	-0.7557	-0.1438	33.6063	-24.0175	5.9814	0.6299	-0.3339	0.5249	0.4650
5.61	-8.6539	1.0847	2.2472	0.2341	-0.7254	-0.1321	33.7115	-24.2661	5.9182	0.6325	-0.3318	0.5229	0.4652
5.62	-8.6633	1.1443	2.3248	0.2249	-0.6971	-0.1186	33.8332	-23.9146	5.6972	0.6349	-0.3297	0.5211	0.4655
5.63	-8.7035	1.1877	2.3993	0.2300	-0.6709	-0.1194	33.9678	-24.0537	5.6054	0.6373	-0.3276	0.5193	0.4657
5.64	-8.7180	1.2052	2.4417	0.2188	-0.6339	-0.1235	33.7310	-24.0617	5.5055	0.6396	-0.3257	0.5176	0.4658
5.65	-8.6959	1.1479	2.5162	0.2012	-0.6080	-0.1324	33.8220	-23.8430	5.3040	0.6418	-0.3239	0.5159	0.4659
5.66	-8.5439	1.0798	2.5494	0.2063	-0.5669	-0.1399	34.1484	-23.6554	5.1703	0.6439	-0.3222	0.5143	0.4660
5.67	-8.5102	1.0535	2.6351	0.2053	-0.5312	-0.1426	34.1069	-23.7169	4.8274	0.6459	-0.3206	0.5128	0.4659
5.68	-8.5456	1.0251	2.6660	0.2053	-0.4813	-0.1565	34.1784	-23.7113	4.6493	0.6478	-0.3191	0.5115	0.4657
5.69	-8.5884	0.9571	2.6866	0.2041	-0.4378	-0.1612	34.1879	-23.6124	4.8250	0.6496	-0.3177	0.5103	0.4654
5.7	-8.5653	0.8697	2.7004	0.2072	-0.4063	-0.1720	34.0937	-23.5937	4.6581	0.6514	-0.3165	0.5092	0.4651
5.71	-8.6570	0.8558	2.8021	0.2222	-0.3721	-0.1717	34.2535	-23.4160	4.5663	0.6531	-0.3152	0.5082	0.4646
5.72	-8.7769	0.8620	2.8034	0.2268	-0.3451	-0.1729	34.3472	-23.2268	4.7115	0.6547	-0.3141	0.5073	0.4641
5.73	-8.7804	0.8224	2.7760	0.2306	-0.3291	-0.1733	34.4730	-23.1671	4.3145	0.6563	-0.3129	0.5065	0.4635
5.74	-8.8373	0.7683	2.8473	0.2315	-0.3193	-0.1694	34.5885	-23.3079	4.2897	0.6578	-0.3118	0.5057	0.4629
5.75	-8.8541	0.7700	2.8489	0.2452	-0.3109	-0.1699	34.5719	-23.2574	4.2833	0.6594	-0.3106	0.5050	0.4623
5.76	-8.8270	0.7824	2.8597	0.2466	-0.3102	-0.1600	34.6060	-23.3566	4.3399	0.6609	-0.3094	0.5043	0.4617
5.77	-8.8397	0.7404	2.9018	0.2345	-0.2983	-0.1617	34.7838	-23.2916	4.1227	0.6624	-0.3083	0.5036	0.4611
5.78	-8.8998	0.7576	2.9193	0.2389	-0.2752	-0.1461	34.6467	-22.7467	4.0993	0.6637	-0.3071	0.5030	0.4605
5.79	-8.8956	0.8081	2.9080	0.2404	-0.2712	-0.1415	34.7078	-22.8133	4.2092	0.6651	-0.3060	0.5025	0.4599
5.8	-8.8796	0.8102	2.9730	0.2290	-0.2677	-0.1375	34.7934	-22.8380	3.9947	0.6664	-0.3049	0.5019	0.4594
5.81	-8.8526	0.8189	3.0148	0.2277	-0.2465	-0.1294	34.7181	-22.9434	4.0266	0.6677	-0.3038	0.5014	0.4588
5.82	-8.8674	0.8405	3.0468	0.2129	-0.2341	-0.1217	35.0314	-22.9182	3.8898	0.6689	-0.3028	0.5009	0.4583
5.83	-8.8298	0.8721	3.0503	0.1944	-0.2126	-0.1088	34.9556	-22.6619	4.1132	0.6699	-0.3019	0.5005	0.4578
5.84	-8.7837	0.8792	3.1005	0.1712	-0.2083	-0.1076	34.7418	-22.6765	4.0180	0.6709	-0.3010	0.5000	0.4574
5.85	-8.7306	0.8813	3.1261	0.1438	-0.1695	-0.0938	34.7602	-22.6761	4.0009	0.6718	-0.3003	0.4996	0.4570
5.86	-8.7664	0.9057	3.1643	0.1225	-0.1504	-0.0828	35.0334	-22.5334	3.9991	0.6725	-0.2996	0.4993	0.4567
5.87	-8.9100	0.9157	3.1927	0.0836	-0.1251	-0.0817	34.9879	-22.4817	3.8179	0.6732	-0.2992	0.4990	0.4565
5.88	-8.9857	0.9252	3.1184	0.0507	-0.1162	-0.0700	35.2337	-22.5016	3.8294	0.6737	-0.2989	0.4986	0.4564
5.89	-9.0229	0.9327	3.1546	0.0258	-0.1252	-0.0614	35.0690	-22.4955	3.7011	0.6742	-0.2986	0.4981	0.4563
5.9	-9.0357	0.9169	3.2187	-0.0145	-0.1272	-0.0515	35.0840	-22.3404	3.9043	0.6746	-0.2984	0.4976	0.4564
5.91	-8.9615	0.8741	3.1991	-0.0421	-0.1226	-0.0401	35.3287	-22.3140	3.5889	0.6749	-0.2982	0.4971	0.4566
5.92	-8.8336	0.8361	3.2010	-0.0750	-0.1200	-0.0346	35.2964	-22.3203	3.4176	0.6751	-0.2982	0.4964	0.4570
5.93	-8.7957	0.8263	3.2722	-0.1071	-0.1096	-0.0226	35.2860	-22.3257	3.4611	0.6753	-0.2983	0.4958	0.4574
5.94	-8.8417	0.8067	3.3067	-0.1401	-0.0905	-0.0104	35.1727	-22.3242	3.4404	0.6753	-0.2985	0.4952	0.4579
5.95	-8.8872	0.7635	3.2744	-0.1637	-0.0777	-0.0112	35.2966	-22.6188	3.4555	0.6753	-0.2988	0.4945	0.4584
5.96	-8.7922	0.6954	3.2461	-0.1796	-0.0777	-0.0022	35.3140	-22.5416	3.4573	0.6752	-0.2992	0.4938	0.4590
5.97	-8.7246	0.6635	3.3145	-0.1815	-0.0762	0.0122	35.2825	-22.2635	3.4328	0.6751	-0.2995	0.4932	0.4597
5.98	-8.6936	0.6464	3.3747	-0.1830	-0.0689	0.0116	36.0634	-22.0803	3.4803	0.6749	-0.2999	0.4926	0.4604
5.99	-8.7691	0.6030	3.4015	-0.1911	-0.0381	0.0009	35.7912	-22.2228	3.2939	0.6747	-0.3003	0.4920	0.4610
6	-8.7347	0.5438	3.3100	-0.1864	-0.0147	0.0094	35.0961	-23.2128	3.2276	0.6744	-0.3008	0.4915	0.4616
6.01	-8.6251	0.4930	3.3035	-0.1751	-0.0071	0.0026	35.0001	-23.5619	3.1252	0.6742	-0.3013	0.4911	0.4621
6.02	-8.4628	0.4710	3.3112	-0.1475	0.0227	-0.0102	34.9451	-22.5168	3.0775	0.6739	-0.3018	0.4908	0.4625
6.03	-8.3183	0.5395	3.2833	-0.1146	0.0530	-0.0054	34.9702	-22.3791	2.9541	0.6736	-0.3023	0.4907	0.4627
6.04	-8.3738	0.5504	3.3559	-0.1087	0.0867	-0.0230	35.1541	-22.3348	3.0210	0.6732	-0.3028	0.4907	0.4629
6.05	-8.5554	0.5094	3.3269	-0.1062	0.1395	-0.0388	35.2397	-22.5078	3.0784	0.6728	-0.3035	0.4909	0.4629
6.06	-8.6790	0.5496	3.2274	-0.0800	0.1575	-0.0472	35.0084	-22.4955	3.1570	0.6724	-0.3042	0.4911	0.4628
6.07	-8.8466	0.5789	3.3262	-0.0622	0.1469	-0.0676	35.2134	-22.5224	3.1693	0.6721	-0.3048	0.4914	0.4625
6.08	-8.9547	0.6180	3.3451	-0.0553	0.1478	-0.0796	35.0668	-22.6107	3.0177	0.6718	-0.3055	0.4916	0.4623
6.09	-9.2431	0.6704	3.4218	-0.0532	0.1353	-0.0871	35.1189	-22.3103	3.1754	0.6715	-0.3061	0.4919	0.4620
6.1	-9.4104	0.6465	3.2911	-0.0621	0.1306	-0.1003	35.2623	-22.4252	3.1453	0.6713	-0.3068	0.4920	0.4617
6.11	-8.9736	0.5593	3.1360	-0.0379	0.0811	-0.1175	35.3569	-22.4065	3.2025	0.6713	-0.3073	0.4920	0.4613
6.12	-8.9170	0.6181	3.4429	-0.0330	0.0489	-0.1070	35.2905	-22.4455	3.0559	0.6714	-0.3077	0.4920	0.4610
6.13	-8.9263	0.6412	3.3369	-0.0549	0.1013	-0.1152	35.4985	-22.6297	2.8618	0.6713	-0.3083	0.4920	0.4607
6.14	-8.9511	0.5249	3.1829	-0.0745	0.1053	-0.1201	35.6235	-22.4478	3.0101	0.6712	-0.3091	0.4920	0.4604
6.15	-8.9513	0.4894	3.1731	-0.0621	0.0884	-0.1063	35.4311	-22.2884	3.1272	0.6711	-0.3097	0.4920	0.4601
6.16	-8.9450	0.5038	3.2340	-0.0581	0.0877	-0.0916	35.4200	-22.3526	3.1802	0.6710	-0.3102	0.4920	0.4599
6.17	-9.0176	0.5115	3.2012	-0.0764	0.1031	-0.0772	35.4192	-22.2317	3.1472	0.6707	-0.3108	0.4921	0.4597
6.18	-9.0647	0.5129	3.1288	-0.0790	0.1020	-0.0672	35.4307	-22.1105	3.2933	0.6705	-0.3114	0.4922	0.4596
6.19	-9.1044	0.5176	3.1241	-0.0817	0.0891	-0.0487	35.5809	-22.0377	3.1853	0.6703	-0.3119	0.4922	0.4596
6.2	-9.1101	0.5260	3.1223	-0.0931	0.0899	-0.0416	35.3202	-22.0891	3.1295	0.6700	-0.3125	0.4922	0.4596
6.21	-9.0370	0.5159	3.0681	-0.1034	0.0893	-0.0385	35.3524	-21.9382	3.2800	0.6697	-0.3130	0.4922	0.4596
6.22	-8.9951	0.5000	3.0694	-0.1051	0.0726	-0.0308	35.2925	-22.0149	3.3506	0.6694	-0.3136	0.4922	0.4597
6.23	-9.0468	0.5099	3.0746	-0.1134	0.0729	-0.0300	35.4759	-21.8756	3.0824	0.6691	-0.3141	0.4922	0.4599
6.24	-9.0845	0.5570	3.0294	-0.1207	0.0739	-0.0302	35.5371	-21.9826	3.0399	0.6687	-0.3147	0.4921	0.4600
6.25	-9.1233	0.5902	3.0896	-0.1339	0.0665	-0.0367	35.3888	-22.0639	3.0978	0.6684	-0.3153	0.4920	0.4602
6.26	-9.1376	0.5612	3.1169	-0.1535	0.0739	-0.0632	35.4413	-22.0960	3.5289	0.6681	-0.3160	0.4918	0.4603
6.27	-9.0805	0.4679	3.0624	-0.1678	0.0702	-0.0857	35.4138	-21.8971	3.1582	0.6679	-0.3169	0.4915	0.4604
6.28	-9.0134	0.3299	3.0535	-0.1817	0.0633	-0.0854	35.4257	-21.8852	3.1458	0.6676	-0.3177	0.4912	0.4606
6.29	-8.8818	0.2061	3.0114	-0.1824	0.0599	-0.0871	35.6956	-22.1231	3.4249	0.6673	-0.3186	0.4908	0.4607
6.3	-8.8102	0.1229	3.0338	-0.1757	0.0578	-0.0665	35.6310	-22.2118	3.2422	0.6671	-0.3194	0.4905	0.4609
6.31	-8.7959	0.0787	3.0412	-0.1623	0.0587	-0.0429	35.5798	-22.2502	3.2790	0.6667	-0.3201	0.4903	0.4611
6.32	-8.7698	0.0466	3.0310	-0.1578	0.0534	-0.0252	35.6206	-22.1326	3.1052	0.6664	-0.3208	0.4900	0.4614
6.33	-8.7231	0.0144	3.0483	-0.1416	0.0516	-0.0072	35.5654	-22.1369	2.9198	0.6660	-0.3213	0.4899	0.4617
6.34	-8.7771	-0.0141	3.1008	-0.1196	0.0559	-0.0013	35.4229	-21.9530	3.0556	0.6657	-0.3218	0.4898	0.4620
6.35	-8.7836	-0.0411	3.0653	-0.0911	0.0635	0.0115	35.4194	-22.0740	3.1596	0.6653	-0.3221	0.4898	0.4623
6.36	-8.7914	-0.0550	3.0689	-0.0580	0.0650	0.0154	35.4313	-22.0608	3.2954	0.6650	-0.3224	0.4899	0.4624
6.37	-8.8608	-0.0393	3.1169	-0.0154	0.0689	0.0208	35.6086	-22.0555	3.3733	0.6647	-0.3224	0.4901	0.4625
6.38	-8.9012	-0.0217	3.0945	0.0200	0.0715	0.0192	35.5310	-22.0687	3.2451	0.6645	-0.3224	0.4904	0.4625
6.39	-8.8714	-0.0190	3.0722	0.0565	0.0715	0.0154	35.3864	-22.0490	3.2517	0.6644	-0.3223	0.4908	0.4624
6.4	-8.9029	0.0211	3.1153	0.0993	0.0703	0.0157	35.4728	-21.9446	3.0779	0.6643	-0.3220	0.4913	0.4622
6.41	-8.9140	0.0790	3.0827	0.1337	0.0882	0.0136	35.5426	-22.0051	3.0943	0.6643	-0.3217	0.4919	0.4618
6.42	-8.8995	0.1613	3.0810	0.1656	0.0865	0.0094	35.4077	-21.8550	3.3722	0.6643	-0.3212	0.4926	0.4614
6.43	-8.9053	0.2472	3.1148	0.1968	0.0970	0.0084	35.4353	-22.0343	3.4370	0.6643	-0.3207	0.4934	0.4609
6.44	-8.8665	0.2991	3.0876	0.2179	0.1069	0.0142	35.4034	-22.0509	3.6321	0.6643	-0.3201	0.4943	0.4603
6.45	-8.9318	0.3722	3.0844	0.2309	0.1233	0.0187	35.5144	-22.0902	3.5257	0.6643	-0.3195	0.4952	0.4597
6.46	-8.9533	0.4448	2.9977	0.2406	0.1517	0.0206	35.4160	-21.9136	3.5279	0.6643	-0.3189	0.4963	0.4590
6.47	-8.9647	0.5406	2.9718	0.2554	0.1413	0.0304	35.4454	-21.7948	3.7875	0.6642	-0.3182	0.4974	0.4583
6.48	-9.0010	0.6531	2.9757	0.2521	0.1485	0.0301	36.0594	-21.6905	3.8133	0.6642	-0.3176	0.4986	0.4576
6.49	-9.0110	0.7371	2.9199	0.2454	0.1544	0.0385	35.6741	-22.0098	3.7325	0.6641	-0.3169	0.4997	0.4570
6.5	-9.0471	0.8181	2.8809	0.2420	0.1557	0.0405	35.2480	-22.8786	3.7672	0.6640	-0.3163	0.5008	0.4563
6.51	-9.1207	0.8829	2.8650	0.2183	0.1511	0.0395	35.3022	-23.5111	4.1935	0.6638	-0.3157	0.5019	0.4558
6.52	-9.1413	0.9416	2.8183	0.1997	0.1506	0.0325	35.2852	-22.3283	4.1003	0.6637	-0.3152	0.5029	0.4552
6.53	-9.1336	0.9788	2.7844	0.1762	0.1383	0.0315	35.1843	-22.2453	4.4052	0.6635	-0.3148	0.5039	0.4547
6.54	-9.1214	1.0052	2.7550	0.1632	0.1255	0.0269	35.1208	-22.4560	4.2274	0.6634	-0.3144	0.5047	0.4543
6.55	-9.1336	1.0305	2.7149	0.1419	0.1118	0.0230	35.2401	-22.0780	4.3903	0.6632	-0.3140	0.5055	0.4539
6.56	-9.1206	1.0438	2.6608	0.1212	0.0952	0.0238	35.1754	-22.2280	4.3334	0.6631	-0.3137	0.5061	0.4536
6.57	-9.1351	1.0588	2.6690	0.0992	0.0692	0.0224	35.4328	-22.3697	4.3702	0.6630	-0.3133	0.5066	0.4534
6.58	-9.1703	1.0784	2.6728	0.0746	0.0533	0.0211	35.1866	-22.2930	4.7076	0.6629	-0.3131	0.5070	0.4532
6.59	-9.2099	1.0656	2.6607	0.0493	0.0455	0.0176	35.2369	-22.1971	4.5250	0.6629	-0.3129	0.5073	0.4532
6.6	-9.2174	1.0290	2.6526	0.0426	0.0209	0.0145	35.0726	-22.3126	4.8624	0.6628	-0.3127	0.5075	0.4532
6.61	-9.1766	1.0140	2.6562	0.0322	0.0047	0.0096	35.1761	-22.3540	4.7235	0.6628	-0.3124	0.5076	0.4532
6.62	-9.1816	1.0312	2.6850	0.0210	-0.0185	0.0050	35.1611	-22.2979	4.5206	0.6628	-0.3122	0.5076	0.4532
6.63	-9.1835	1.0420	2.6973	0.0224	-0.0320	0.0071	35.0270	-22.1272	4.4992	0.6629	-0.3120	0.5076	0.4533
6.64	-9.1487	1.0277	2.6868	0.0038	-0.0397	-0.0075	35.0936	-22.1151	4.5349	0.6630	-0.3118	0.5075	0.4534
6.65	-9.1602	1.0167	2.7275	-0.0045	-0.0520	-0.0076	34.9056	-22.5306	4.4763	0.6632	-0.3116	0.5073	0.4536
6.66	-9.1746	0.9924	2.7231	-0.0053	-0.0588	-0.0089	35.1492	-22.3620	4.6381	0.6633	-0.3114	0.5071	0.4537
6.67	-9.1437	0.9576	2.6897	-0.0173	-0.0754	-0.0166	35.0042	-22.4019	4.4701	0.6635	-0.3113	0.5068	0.4539
6.68	-9.0434	0.9267	2.6796	-0.0175	-0.0875	-0.0314	35.2633	-22.3370	4.6127	0.6637	-0.3111	0.5064	0.4541
6.69	-8.9701	0.9165	2.7442	-0.0129	-0.1095	-0.0344	35.5191	-22.1130	4.4457	0.6640	-0.3109	0.5060	0.4543
6.7	-9.0253	0.9167	2.7850	-0.0223	-0.0929	-0.0341	35.2395	-22.4445	4.2797	0.6643	-0.3108	0.5056	0.4544
6.71	-9.0123	0.9070	2.7439	-0.0232	-0.1047	-0.0366	34.9663	-22.7019	4.4583	0.6646	-0.3106	0.5051	0.4546
6.72	-9.0127	0.9023	2.8248	-0.0117	-0.1133	-0.0379	35.3438	-22.4307	4.4514	0.6649	-0.3104	0.5047	0.4548
6.73	-8.9729	0.8987	2.8724	-0.0268	-0.1074	-0.0446	35.1806	-22.3705	4.2911	0.6652	-0.3103	0.5042	0.4549
6.74	-8.9364	0.8896	2.8787	-0.0293	-0.1026	-0.0502	35.3100	-22.3749	4.2145	0.6656	-0.3102	0.5037	0.4551
6.75	-8.9215	0.8718	2.9172	-0.0327	-0.0929	-0.0507	35.3709	-22.2979	4.3660	0.6658	-0.3101	0.5032	0.4552
6.76	-8.9204	0.8556	2.9490	-0.0357	-0.0890	-0.0538	35.2700	-22.3888	4.3166	0.6661	-0.3101	0.5028	0.4554
6.77	-8.8734	0.8310	2.9540	-0.0543	-0.0801	-0.0585	35.2934	-22.1512	4.0332	0.6664	-0.3101	0.5023	0.4555
6.78	-8.8531	0.8144	3.0054	-0.0538	-0.0599	-0.0587	35.3105	-22.4374	4.1827	0.6665	-0.3102	0.5019	0.4556
6.79	-8.8767	0.8123	3.0427	-0.0685	-0.0439	-0.0524	35.2349	-22.1845	4.3562	0.6667	-0.3104	0.5015	0.4558
6.8	-8.8791	0.7561	3.0524	-0.0835	-0.0309	-0.0601	35.0401	-22.0940	4.1351	0.6667	-0.3106	0.5011	0.4559
6.81	-8.7938	0.7168	3.0274	-0.0798	-0.0104	-0.0521	35.3130	-22.1305	4.0753	0.6667	-0.3109	0.5008	0.4561
6.82	-8.7959	0.7026	3.1080	-0.0860	0.0085	-0.0495	35.2971	-22.1107	3.9132	0.6667	-0.3112	0.5006	0.4562
6.83	-8.9220	0.6661	3.1170	-0.1021	0.0443	-0.0456	35.2650	-22.1238	4.0214	0.6665	-0.3117	0.5004	0.4563
6.84	-8.9791	0.6255	2.9965	-0.1064	0.0671	-0.0336	35.1136	-22.1153	4.0735	0.6663	-0.3122	0.5003	0.4564
6.85	-8.9492	0.6243	2.9868	-0.0849	0.0587	-0.0342	35.0977	-22.1192	3.9400	0.6660	-0.3126	0.5003	0.4565
6.86	-8.9340	0.6006	3.0374	-0.0850	0.0722	-0.0320	35.4016	-22.2442	4.1039	0.6658	-0.3130	0.5003	0.4566
6.87	-8.9424	0.5979	2.9766	-0.0834	0.0878	-0.0325	35.4880	-22.3450	3.9806	0.6655	-0.3135	0.5003	0.4566
6.88	-9.0398	0.5601	2.9386	-0.0849	0.0994	-0.0312	35.4727	-22.4796	3.9707	0.6652	-0.3140	0.5004	0.4567
6.89	-9.0099	0.5513	2.8528	-0.0741	0.1019	-0.0322	35.3512	-22.4629	3.8575	0.6649	-0.3144	0.5005	0.4567
6.9	-9.0179	0.5559	2.8860	-0.0566	0.0892	-0.0242	35.2752	-22.3337	3.8902	0.6646	-0.3148	0.5007	0.4567
6.91	-8.9732	0.5479	2.8291	-0.0558	0.1092	-0.0297	35.2948	-22.2276	3.8312	0.6643	-0.3152	0.5008	0.4567
6.92	-8.9957	0.5863	2.7860	-0.0536	0.1013	-0.0102	35.3004	-22.1068	4.0820	0.6639	-0.3156	0.5010	0.4567
6.93	-9.0441	0.5582	2.7912	-0.0515	0.1080	-0.0184	35.2749	-22.1177	4.0193	0.6636	-0.3159	0.5013	0.4567
6.94	-9.0344	0.5758	2.7293	-0.0403	0.1035	-0.0169	35.3346	-22.1404	4.1333	0.6633	-0.3163	0.5015	0.4566
6.95	-9.0314	0.5951	2.7168	-0.0452	0.0909	-0.0156	35.1661	-22.3259	4.0840	0.6630	-0.3165	0.5017	0.4566
6.96	-9.0373	0.5791	2.7354	-0.0536	0.0939	-0.0199	35.3487	-22.2566	3.9313	0.6627	-0.3169	0.5018	0.4566
6.97	-9.1055	0.6103	2.7009	-0.0511	0.0844	-0.0126	35.7644	-22.2173	4.2895	0.6625	-0.3172	0.5020	0.4567
6.98	-9.1082	0.5893	2.6897	-0.0552	0.0634	-0.0221	36.2232	-21.8535	4.5849	0.6622	-0.3175	0.5020	0.4567
6.99	-9.0901	0.5862	2.7114	-0.0539	0.0526	-0.0123	36.0085	-22.0662	4.2488	0.6620	-0.3177	0.5021	0.4568
7	-9.1434	0.5984	2.7540	-0.0670	0.0396	-0.0071	35.5363	-22.7693	3.8695	0.6618	-0.3180	0.5020	0.4570
7.01	-9.1591	0.5673	2.7144	-0.0809	0.0264	-0.0079	35.2950	-23.0442	4.0684	0.6616	-0.3182	0.5019	0.4572
7.02	-9.1948	0.5561	2.7090	-0.0795	0.0112	-0.0049	35.1698	-22.2042	4.0163	0.6615	-0.3184	0.5018	0.4575
7.03	-9.0924	0.5361	2.6817	-0.0792	-0.0112	-0.0085	35.3756	-22.1194	4.0610	0.6614	-0.3186	0.5016	0.4577
7.04	-9.0122	0.5305	2.7279	-0.0652	-0.0371	-0.0042	35.2747	-22.3833	3.9873	0.6613	-0.3186	0.5013	0.4580
7.05	-9.0140	0.5581	2.7603	-0.0572	-0.0290	-0.0060	35.4301	-22.4350	3.9548	0.6613	-0.3187	0.5011	0.4583
7.06	-9.0417	0.5416	2.7613	-0.0655	-0.0205	-0.0083	35.6430	-22.5285	3.8577	0.6613	-0.3188	0.5008	0.4585
7.07	-8.9969	0.5141	2.7414	-0.0631	-0.0312	-0.0086	35.4139	-22.4107	3.8688	0.6613	-0.3188	0.5006	0.4588
7.08	-8.9871	0.5257	2.8264	-0.0518	-0.0393	-0.0080	35.4961	-22.3246	3.9806	0.6613	-0.3188	0.5003	0.4591
7.09	-9.0342	0.5385	2.8627	-0.0536	-0.0266	-0.0085	35.6492	-22.3565	3.8946	0.6613	-0.3189	0.5001	0.4593
7.1	-9.0075	0.5305	2.8201	-0.0439	-0.0287	-0.0129	35.3762	-22.4304	3.6260	0.6613	-0.3189	0.4999	0.4595
7.11	-9.0136	0.5532	2.8659	-0.0316	-0.0356	-0.0192	35.4175	-22.3406	3.7312	0.6613	-0.3189	0.4997	0.4597
7.12	-9.0370	0.5728	2.9064	-0.0281	-0.0246	-0.0300	35.4225	-22.3467	3.7202	0.6614	-0.3189	0.4995	0.4598
7.13	-8.9778	0.5484	2.8667	-0.0278	-0.0222	-0.0356	35.3308	-22.3654	3.6377	0.6615	-0.3189	0.4993	0.4599
7.14	-8.9326	0.5314	2.8902	-0.0129	-0.0276	-0.0432	35.2139	-22.3271	3.7937	0.6616	-0.3189	0.4991	0.4599
7.15	-8.9420	0.5493	2.9417	-0.0093	-0.0206	-0.0438	35.2361	-22.2588	3.8960	0.6617	-0.3189	0.4989	0.4599
7.16	-8.9943	0.5555	2.9434	-0.0022	-0.0043	-0.0519	35.2465	-22.2144	3.7092	0.6618	-0.3189	0.4988	0.4598
7.17	-8.8862	0.5181	2.8732	-0.0021	-0.0030	-0.0621	35.1274	-22.0668	3.6208	0.6620	-0.3190	0.4987	0.4597
7.18	-8.8205	0.5349	2.9456	0.0032	0.0023	-0.0712	35.2874	-22.2148	3.7175	0.6621	-0.3190	0.4986	0.4596
7.19	-8.8751	0.5469	2.9811	-0.0039	0.0308	-0.0807	35.5072	-22.1277	3.7659	0.6622	-0.3192	0.4986	0.4594
7.2	-8.9676	0.5073	2.9359	-0.0065	0.0376	-0.0862	35.5066	-21.9885	3.7103	0.6623	-0.3194	0.4985	0.4591
7.21	-9.0313	0.5034	2.8771	-0.0175	0.0479	-0.0838	35.4023	-22.0096	3.4851	0.6623	-0.3197	0.4985	0.4589
7.22	-8.9125	0.4658	2.8706	-0.0080	0.0236	-0.0840	35.4195	-22.1315	3.5824	0.6624	-0.3199	0.4984	0.4587
7.23	-8.8738	0.4790	2.9506	-0.0122	0.0161	-0.0804	35.6413	-22.4639	3.6393	0.6625	-0.3201	0.4983	0.4585
7.24	-8.8299	0.4738	2.8978	-0.0282	0.0348	-0.0834	35.7911	-22.3237	3.5459	0.6626	-0.3203	0.4982	0.4584
7.25	-8.8484	0.3977	2.8700	-0.0434	0.0392	-0.0758	35.6410	-22.2904	3.9323	0.6626	-0.3206	0.4982	0.4582
7.26	-8.8269	0.3503	2.8322	-0.0369	0.0329	-0.0643	35.8963	-22.1408	3.4565	0.6626	-0.3209	0.4981	0.4582
7.27	-8.8927	0.3720	2.8861	-0.0281	0.0172	-0.0578	35.7044	-22.1297	3.5653	0.6626	-0.3211	0.4980	0.4581
7.28	-8.9742	0.3659	2.8829	-0.0414	0.0095	-0.0524	35.5702	-22.2892	3.6810	0.6626	-0.3213	0.4978	0.4581
7.29	-8.9415	0.2983	2.8510	-0.0379	-0.0052	-0.0507	35.5947	-22.0046	3.6651	0.6627	-0.3214	0.4977	0.4581
7.3	-8.8873	0.3085	2.8826	-0.0268	-0.0269	-0.0387	35.6059	-21.9760	3.6363	0.6628	-0.3215	0.4974	0.4582
7.31	-8.8168	0.3465	2.9444	-0.0231	-0.0354	-0.0358	35.5054	-22.1166	3.3648	0.6629	-0.3214	0.4972	0.4583
7.32	-8.7670	0.3309	2.9762	-0.0283	-0.0289	-0.0326	35.3938	-21.9391	3.3998	0.6630	-0.3214	0.4970	0.4584
7.33	-8.7161	0.2776	2.9638	-0.0295	-0.0105	-0.0449	35.5857	-21.8067	3.5243	0.6630	-0.3215	0.4968	0.4584
7.34	-8.6781	0.2498	2.9633	-0.0254	-0.0052	-0.0459	35.5953	-21.7624	3.6543	0.6631	-0.3216	0.4967	0.4584
7.35	-8.7400	0.2346	3.0111	-0.0297	0.0228	-0.0439	35.5982	-21.7175	3.6630	0.6631	-0.3217	0.4966	0.4584
7.36	-8.7525	0.2025	2.9875	-0.0202	0.0405	-0.0462	35.4611	-21.9833	3.5290	0.6631	-0.3219	0.4966	0.4584
7.37	-8.9298	0.1696	3.0509	-0.0119	0.0581	-0.0357	35.5775	-21.6471	3.8331	0.6630	-0.3221	0.4967	0.4583
7.38	-9.0501	0.1000	2.9827	-0.0026	0.0823	-0.0299	35.5999	-22.0252	3.7790	0.6628	-0.3222	0.4969	0.4582
7.39	-9.1245	0.0622	2.9250	0.0221	0.0771	-0.0159	35.5897	-21.9687	3.6267	0.6627	-0.3223	0.4972	0.4580
7.4	-9.1543	0.0851	2.9058	0.0404	0.0774	-0.0041	35.5923	-21.6289	3.8453	0.6626	-0.3223	0.4975	0.4579
7.41	-9.0980	0.1067	2.8999	0.0673	0.0696	0.0132	35.6285	-21.8983	3.7857	0.6625	-0.3221	0.4979	0.4577
7.42	-9.0879	0.1308	2.8863	0.0902	0.0818	0.0238	35.8939	-21.9991	3.6511	0.6623	-0.3218	0.4984	0.4575
7.43	-9.0787	0.1523	2.8126	0.1060	0.0995	0.0213	35.9512	-22.1184	3.5482	0.6622	-0.3215	0.4990	0.4573
7.44	-9.1088	0.1922	2.7848	0.1327	0.1018	0.0234	35.7573	-22.2194	3.6258	0.6621	-0.3212	0.4997	0.4570
7.45	-9.1238	0.2523	2.7475	0.1584	0.1123	0.0239	35.5397	-22.0176	3.7449	0.6620	-0.3207	0.5004	0.4566
7.46	-9.1749	0.3009	2.7190	0.1811	0.1188	0.0266	35.7512	-21.8710	3.9663	0.6619	-0.3202	0.5013	0.4561
7.47	-9.2610	0.3506	2.6688	0.1946	0.1263	0.0256	35.8594	-22.0886	4.0677	0.6618	-0.3197	0.5021	0.4556
7.48	-9.1617	0.4040	2.5600	0.2223	0.1118	0.0267	36.1759	-21.7608	3.9884	0.6618	-0.3191	0.5031	0.4551
7.49	-9.2035	0.5185	2.6431	0.2286	0.0880	0.0280	35.9302	-21.8575	4.1969	0.6619	-0.3184	0.5039	0.4545
7.5	-9.2100	0.6041	2.6117	0.2265	0.0895	0.0243	35.4762	-22.5382	4.1767	0.6620	-0.3176	0.5048	0.4540
7.51	-9.2224	0.6529	2.5746	0.2281	0.0809	0.0239	35.6636	-23.1015	4.3705	0.6620	-0.3169	0.5056	0.4535
7.52	-9.2411	0.7368	2.5844	0.2261	0.0639	0.0243	35.3615	-21.9320	4.5913	0.6622	-0.3161	0.5064	0.4530
7.53	-9.2002	0.8054	2.5985	0.2122	0.0480	0.0238	35.4113	-22.0382	4.5477	0.6623	-0.3154	0.5070	0.4525
7.54	-9.2098	0.8586	2.6116	0.1928	0.0385	0.0227	35.5087	-22.1459	4.5539	0.6625	-0.3147	0.5076	0.4521
7.55	-9.2305	0.9072	2.5998	0.1615	0.0296	0.0243	35.4328	-21.9174	4.6148	0.6626	-0.3140	0.5081	0.4518
7.56	-9.1987	0.9501	2.5921	0.1411	0.0094	0.0280	35.2840	-22.0337	4.6655	0.6627	-0.3134	0.5085	0.4517
7.57	-9.1670	0.9902	2.6328	0.1112	0.0018	0.0250	35.4259	-22.1534	4.7538	0.6628	-0.3128	0.5088	0.4515
7.58	-9.1504	1.0161	2.6378	0.0767	-0.0047	0.0341	35.3539	-21.9159	4.7361	0.6629	-0.3124	0.5091	0.4515
7.59	-9.1440	1.0244	2.6368	0.0504	-0.0141	0.0342	35.2203	-22.0910	4.7570	0.6629	-0.3120	0.5092	0.4516
7.6	-9.1515	1.0355	2.6599	0.0201	-0.0298	0.0423	35.1955	-22.2242	4.6364	0.6629	-0.3116	0.5092	0.4518
7.61	-9.1411	1.0303	2.6662	-0.0104	-0.0343	0.0421	35.3743	-22.2282	4.8062	0.6629	-0.3114	0.5091	0.4522
7.62	-9.1117	1.0024	2.6889	-0.0434	-0.0485	0.0409	35.3559	-22.3264	4.8359	0.6628	-0.3112	0.5089	0.4526
7.63	-9.0666	0.9658	2.6897	-0.0747	-0.0437	0.0437	35.1949	-22.2772	4.5337	0.6627	-0.3111	0.5087	0.4530
7.64	-9.0265	0.9318	2.7134	-0.0873	-0.0509	0.0392	35.3172	-22.4175	4.5920	0.6626	-0.3111	0.5084	0.4536
7.65	-9.0370	0.8967	2.7339	-0.1084	-0.0488	0.0381	35.1577	-22.3627	4.6746	0.6625	-0.3111	0.5080	0.4541
7.66	-9.0166	0.8365	2.7291	-0.1286	-0.0393	0.0308	35.3122	-22.4468	4.6544	0.6623	-0.3112	0.5077	0.4547
7.67	-9.0373	0.7977	2.7512	-0.1318	-0.0464	0.0287	35.2088	-22.5884	4.6712	0.6621	-0.3114	0.5073	0.4553
7.68	-9.0748	0.7649	2.7660	-0.1329	-0.0414	0.0212	35.2060	-22.4206	4.4089	0.6620	-0.3116	0.5068	0.4559
7.69	-9.0541	0.7179	2.7557	-0.1322	-0.0430	0.0171	35.2215	-22.3912	4.3634	0.6618	-0.3118	0.5064	0.4564
7.7	-9.0093	0.6797	2.7753	-0.1261	-0.0561	0.0109	35.1983	-22.3289	4.4175	0.6617	-0.3119	0.5060	0.4570
7.71	-9.0067	0.6607	2.8318	-0.1155	-0.0511	-0.0064	35.2372	-22.1753	4.1287	0.6617	-0.3121	0.5055	0.4574
7.72	-8.9928	0.6289	2.8121	-0.1070	-0.0456	-0.0097	35.1622	-22.2738	4.1365	0.6616	-0.3122	0.5051	0.4579
7.73	-9.0003	0.5969	2.8349	-0.0948	-0.0500	-0.0164	35.1216	-22.5205	4.2105	0.6616	-0.3124	0.5047	0.4582
7.74	-8.9770	0.5736	2.8520	-0.0771	-0.0515	-0.0291	35.0341	-22.3617	4.2817	0.6617	-0.3125	0.5043	0.4585
7.75	-8.9402	0.5526	2.8721	-0.0627	-0.0457	-0.0322	35.0364	-22.4310	4.1777	0.6618	-0.3126	0.5039	0.4587
7.76	-8.9358	0.5530	2.8991	-0.0469	-0.0412	-0.0333	35.1842	-22.6404	4.2281	0.6619	-0.3126	0.5036	0.4589
7.77	-8.9301	0.5454	2.9067	-0.0336	-0.0322	-0.0414	35.2960	-22.4063	4.1017	0.6620	-0.3126	0.5033	0.4590
7.78	-8.9209	0.5439	2.9163	-0.0192	-0.0266	-0.0471	35.2257	-22.2698	4.2050	0.6621	-0.3126	0.5031	0.4590
7.79	-8.9264	0.5456	2.9380	-0.0030	-0.0141	-0.0408	35.0441	-22.4840	4.1812	0.6622	-0.3126	0.5030	0.4590
7.8	-8.9215	0.5503	2.9360	0.0061	-0.0053	-0.0538	35.2989	-22.6153	4.0309	0.6624	-0.3126	0.5029	0.4590
7.81	-8.9025	0.5488	2.9296	0.0203	0.0037	-0.0527	35.6080	-22.4520	3.9326	0.6625	-0.3126	0.5028	0.4588
7.82	-8.8964	0.5550	2.9409	0.0207	0.0179	-0.0454	35.3399	-22.6054	3.9056	0.6626	-0.3126	0.5029	0.4587
7.83	-8.8968	0.5657	2.9240	0.0229	0.0296	-0.0543	35.2490	-22.5227	3.8102	0.6627	-0.3126	0.5029	0.4585
7.84	-8.8603	0.5692	2.8960	0.0225	0.0394	-0.0455	35.1841	-22.4116	4.1306	0.6627	-0.3126	0.5030	0.4583
7.85	-8.8255	0.5715	2.8983	0.0200	0.0537	-0.0447	35.3254	-22.2740	3.9847	0.6627	-0.3126	0.5032	0.4581
7.86	-8.8526	0.5719	2.8932	0.0134	0.0716	-0.0407	35.0364	-22.4701	4.0511	0.6627	-0.3128	0.5033	0.4580
7.87	-8.9207	0.5592	2.8531	0.0203	0.0855	-0.0354	35.2585	-22.4287	4.1233	0.6625	-0.3129	0.5036	0.4578
7.88	-8.9707	0.5567	2.8085	0.0146	0.0860	-0.0326	35.3386	-22.3710	4.0955	0.6624	-0.3130	0.5039	0.4576
7.89	-9.0138	0.5557	2.8018	-0.0019	0.0966	-0.0261	35.1579	-22.4040	4.2070	0.6622	-0.3132	0.5041	0.4574
7.9	-9.0371	0.5560	2.7664	-0.0041	0.1042	-0.0124	35.2901	-22.2372	4.2050	0.6620	-0.3133	0.5044	0.4573
7.91	-9.0353	0.5463	2.7227	-0.0025	0.0992	-0.0045	35.2478	-22.4213	4.1631	0.6617	-0.3135	0.5047	0.4573
7.92	-9.0516	0.5386	2.7041	-0.0066	0.0972	-0.0060	35.1099	-22.2667	4.3329	0.6615	-0.3136	0.5050	0.4572
7.93	-9.0394	0.5275	2.6715	-0.0071	0.0946	-0.0052	35.1161	-22.3601	4.2073	0.6612	-0.3138	0.5053	0.4572
7.94	-9.0771	0.5320	2.6736	-0.0031	0.0974	-0.0031	35.1617	-22.3420	4.4995	0.6610	-0.3139	0.5056	0.4571
7.95	-9.1256	0.5343	2.6530	-0.0042	0.0985	-0.0010	35.3155	-22.2912	4.5059	0.6607	-0.3140	0.5059	0.4570
7.96	-9.1661	0.5338	2.6381	0.0102	0.0786	-0.0054	35.2035	-22.2862	4.4685	0.6605	-0.3141	0.5062	0.4570
7.97	-9.1821	0.5399	2.6397	0.0227	0.0675	-0.0000	35.3534	-22.2113	4.7148	0.6604	-0.3141	0.5064	0.4569
7.98	-9.1646	0.5328	2.6315	0.0207	0.0567	0.0039	35.6920	-21.8818	4.6318	0.6603	-0.3140	0.5067	0.4569
7.99	-9.1412	0.5447	2.6345	0.0333	0.0415	0.0111	35.6530	-22.0940	4.6089	0.6602	-0.3139	0.5069	0.4569
8	-9.1448	0.5831	2.6537	0.0496	0.0346	0.0131	35.4068	-23.1882	4.4435	0.6601	-0.3136	0.5071	0.4568
8.01	-9.1444	0.6177	2.6486	0.0444	0.0227	0.0119	35.4914	-23.5418	4.5364	0.6601	-0.3134	0.5073	0.4568
8.02	-9.1250	0.6487	2.6484	0.0530	0.0160	0.0100	35.0724	-22.4780	4.5325	0.6601	-0.3131	0.5075	0.4568
8.03	-9.0982	0.6760	2.6739	0.0539	0.0160	0.0025	35.2261	-22.4739	4.4257	0.6601	-0.3129	0.5077	0.4567
8.04	-9.0796	0.6920	2.6825	0.0533	0.0181	-0.0043	35.1678	-22.3606	4.5579	0.6602	-0.3126	0.5078	0.4567
8.05	-9.0528	0.6959	2.6761	0.0568	0.0140	-0.0060	35.2783	-22.4778	4.7027	0.6602	-0.3124	0.5080	0.4566
8.06	-9.0360	0.7142	2.6942	0.0566	0.0033	-0.0063	35.2168	-22.4067	4.7072	0.6603	-0.3121	0.5081	0.4565
8.07	-9.0296	0.7385	2.7100	0.0569	0.0086	-0.0065	35.1744	-22.3886	4.6120	0.6604	-0.3118	0.5082	0.4564
8.08	-9.0228	0.7560	2.7158	0.0502	0.0075	-0.0059	34.9247	-22.2354	4.5688	0.6605	-0.3116	0.5084	0.4563
8.09	-9.0236	0.7740	2.7299	0.0462	0.0132	-0.0164	35.2260	-22.2642	4.4860	0.6605	-0.3114	0.5085	0.4563
8.1	-9.0081	0.7934	2.7357	0.0485	0.0126	-0.0198	35.0717	-22.4353	4.6323	0.6606	-0.3112	0.5086	0.4561
8.11	-9.0221	0.8045	2.7694	0.0477	0.0178	-0.0241	35.0540	-22.3571	4.6143	0.6607	-0.3110	0.5087	0.4560
8.12	-9.0312	0.8142	2.7661	0.0426	0.0198	-0.0286	35.0760	-22.4789	4.8001	0.6608	-0.3109	0.5088	0.4559
8.13	-9.0553	0.8195	2.7692	0.0436	0.0196	-0.0312	34.9810	-22.4159	4.8022	0.6609	-0.3108	0.5089	0.4557
8.14	-9.0063	0.8165	2.7532	0.0337	0.0182	-0.0315	35.2425	-22.2792	4.6926	0.6609	-0.3106	0.5090	0.4556
8.15	-8.9736	0.8175	2.7968	0.0185	0.0184	-0.0339	35.1872	-22.3184	4.5458	0.6610	-0.3106	0.5090	0.4555
8.16	-8.9795	0.8222	2.7992	-0.0025	0.0219	-0.0305	35.1909	-22.0760	4.5010	0.6610	-0.3106	0.5090	0.4555
8.17	-8.9840	0.7947	2.8046	-0.0046	0.0262	-0.0358	35.2956	-22.3503	4.6012	0.6610	-0.3107	0.5091	0.4554
8.18	-8.9722	0.7728	2.7805	-0.0279	0.0292	-0.0387	35.3940	-22.4807	4.7823	0.6610	-0.3108	0.5090	0.4554
8.19	-8.9370	0.7538	2.7923	-0.0270	0.0392	-0.0308	35.5528	-22.3652	4.7487	0.6609	-0.3109	0.5090	0.4554
8.2	-8.9651	0.7093	2.8003	-0.0344	0.0513	-0.0325	35.1746	-22.4008	4.6940	0.6608	-0.3111	0.5090	0.4554
8.21	-8.9497	0.6738	2.7378	-0.0371	0.0566	-0.0314	35.3333	-22.4026	4.7037	0.6607	-0.3113	0.5091	0.4554
8.22	-8.9810	0.6587	2.7532	-0.0461	0.0552	-0.0320	35.3278	-22.5047	4.5918	0.6605	-0.3116	0.5091	0.4555
8.23	-8.9752	0.6509	2.7572	-0.0379	0.0520	-0.0317	35.1236	-22.4589	4.6246	0.6604	-0.3118	0.5091	0.4555
8.24	-9.0005	0.6326	2.7576	-0.0450	0.0644	-0.0316	35.3360	-22.1629	4.6053	0.6602	-0.3121	0.5092	0.4555
8.25	-9.0230	0.6096	2.7332	-0.0403	0.0649	-0.0298	35.1403	-22.3068	4.7218	0.6601	-0.3123	0.5092	0.4555
8.26	-9.0230	0.5851	2.7202	-0.0458	0.0647	-0.0228	35.2651	-22.5067	4.7087	0.6599	-0.3126	0.5093	0.4555
8.27	-9.0044	0.5906	2.7144	-0.0337	0.0615	-0.0306	35.0078	-21.9824	4.6863	0.6597	-0.3128	0.5094	0.4555
8.28	-9.0336	0.5670	2.7328	-0.0289	0.0732	-0.0320	35.1339	-22.2687	4.7187	0.6596	-0.3130	0.5095	0.4555
8.29	-9.0444	0.5406	2.6843	-0.0322	0.0774	-0.0302	35.1995	-22.0473	4.9339	0.6594	-0.3132	0.5096	0.4554
8.3	-9.0976	0.5399	2.6932	-0.0270	0.0673	-0.0245	35.0525	-22.0815	4.8429	0.6592	-0.3134	0.5097	0.4554
8.31	-9.0774	0.5324	2.6682	-0.0234	0.0692	-0.0198	35.2405	-22.2425	5.0011	0.6591	-0.3136	0.5098	0.4554
8.32	-9.0797	0.5423	2.6851	-0.0121	0.0590	-0.0142	35.0502	-22.1960	4.8515	0.6589	-0.3137	0.5100	0.4554
8.33	-9.0639	0.5414	2.6566	-0.0085	0.0546	-0.0123	35.2136	-22.0966	4.7569	0.6588	-0.3138	0.5101	0.4554
8.34	-9.0658	0.5408	2.6559	-0.0026	0.0580	-0.0104	35.3439	-21.9257	4.8717	0.6586	-0.3138	0.5102	0.4553
8.35	-9.0545	0.5474	2.6424	0.0048	0.0554	-0.0114	35.1527	-22.1404	4.9022	0.6585	-0.3139	0.5104	0.4553
8.36	-9.0450	0.5556	2.6484	0.0204	0.0517	-0.0052	35.3779	-22.6270	4.6163	0.6584	-0.3138	0.5106	0.4553
8.37	-9.0701	0.5628	2.6469	0.0207	0.0589	-0.0059	35.3093	-22.4512	4.8679	0.6583	-0.3138	0.5108	0.4552
8.38	-9.0785	0.5726	2.6306	0.0224	0.0562	-0.0055	35.2953	-22.2859	4.8953	0.6582	-0.3138	0.5110	0.4551
8.39	-9.0821	0.5885	2.6347	0.0219	0.0510	-0.0058	35.1602	-22.3174	4.7981	0.6581	-0.3137	0.5112	0.4551
8.4	-9.0880	0.6060	2.6438	0.0317	0.0485	-0.0057	35.4186	-22.4379	4.9084	0.6581	-0.3136	0.5114	0.4550
8.41	-9.0935	0.6238	2.6384	0.0340	0.0466	-0.0036	35.1919	-22.2958	4.9344	0.6580	-0.3135	0.5116	0.4549
8.42	-9.0885	0.6309	2.6301	0.0406	0.0399	-0.0055	35.4013	-22.3926	5.1049	0.6580	-0.3134	0.5118	0.4548
8.43	-9.0818	0.6471	2.6266	0.0410	0.0412	-0.0057	35.3188	-22.5039	4.9455	0.6580	-0.3132	0.5120	0.4548
8.44	-9.0732	0.6641	2.6266	0.0429	0.0357	-0.0056	35.1852	-22.2858	5.2053	0.6579	-0.3131	0.5122	0.4547
8.45	-9.0877	0.6782	2.6255	0.0415	0.0387	-0.0087	35.4303	-22.3372	5.0464	0.6579	-0.3129	0.5124	0.4546
8.46	-9.0793	0.6888	2.6057	0.0398	0.0384	-0.0097	35.1517	-22.1572	5.2080	0.6579	-0.3128	0.5126	0.4545
8.47	-9.0473	0.6930	2.6140	0.0287	0.0324	-0.0033	35.3816	-22.3061	5.3740	0.6579	-0.3127	0.5128	0.4544
8.48	-9.0436	0.7008	2.6230	0.0400	0.0315	-0.0109	35.8109	-21.6945	5.1340	0.6579	-0.3125	0.5129	0.4544
8.49	-9.0606	0.7224	2.6219	0.0370	0.0365	-0.0071	35.5632	-22.0823	5.2204	0.6579	-0.3124	0.5131	0.4543
8.5	-9.0576	0.7362	2.6029	0.0348	0.0326	-0.0068	35.2530	-23.0171	5.2529	0.6578	-0.3122	0.5133	0.4542
8.51	-9.0554	0.7472	2.6168	0.0270	0.0271	-0.0098	35.1391	-23.5571	5.0884	0.6578	-0.3121	0.5134	0.4542
8.52	-9.0538	0.7597	2.6183	0.0216	0.0281	-0.0161	34.9017	-22.5235	5.2101	0.6578	-0.3120	0.5135	0.4541
8.53	-9.0833	0.7643	2.6184	0.0210	0.0298	-0.0094	35.1013	-22.3121	5.1729	0.6578	-0.3120	0.5136	0.4541
8.54	-9.0970	0.7605	2.6016	0.0219	0.0282	-0.0072	35.0112	-22.1808	5.2379	0.6578	-0.3118	0.5137	0.4540
8.55	-9.0901	0.7623	2.6041	0.0032	0.0268	-0.0088	35.1372	-22.2514	5.0529	0.6577	-0.3118	0.5138	0.4541
8.56	-9.0473	0.7633	2.6022	-0.0050	0.0257	-0.0156	35.1367	-22.3779	4.9761	0.6577	-0.3118	0.5138	0.4541
8.57	-9.0189	0.7543	2.6014	-0.0099	0.0309	-0.0177	35.1547	-22.7071	5.3671	0.6577	-0.3118	0.5139	0.4541
8.58	-9.0232	0.7398	2.5932	-0.0218	0.0347	-0.0133	35.2680	-22.5545	5.2580	0.6576	-0.3119	0.5139	0.4542
8.59	-9.0234	0.7245	2.5743	-0.0268	0.0389	-0.0129	35.4403	-22.3548	5.3235	0.6574	-0.3120	0.5139	0.4542
8.6	-9.0496	0.7218	2.5825	-0.0278	0.0433	-0.0169	35.2013	-22.3077	5.1624	0.6573	-0.3121	0.5140	0.4543
8.61	-9.0900	0.7195	2.5870	-0.0282	0.0388	-0.0200	35.1486	-22.4910	5.3643	0.6572	-0.3122	0.5140	0.4543
8.62	-9.1090	0.7007	2.5646	-0.0296	0.0438	-0.0215	35.2701	-22.4820	5.3561	0.6571	-0.3124	0.5140	0.4544
8.63	-9.1086	0.6775	2.5592	-0.0299	0.0402	-0.0207	35.2055	-22.7005	5.1680	0.6570	-0.3125	0.5140	0.4544
8.64	-9.0937	0.6548	2.5637	-0.0289	0.0338	-0.0140	35.1582	-22.1852	5.3313	0.6569	-0.3126	0.5140	0.4545
8.65	-9.0682	0.6451	2.5703	-0.0296	0.0391	-0.0171	35.0998	-22.2597	5.3789	0.6568	-0.3127	0.5140	0.4545
8.66	-9.0834	0.6411	2.5723	-0.0285	0.0432	-0.0160	35.0217	-22.5138	5.4038	0.6567	-0.3128	0.5141	0.4546
8.67	-9.0810	0.6414	2.5438	-0.0323	0.0467	-0.0163	35.1608	-22.3404	5.2689	0.6566	-0.3129	0.5141	0.4546
8.68	-9.0642	0.6396	2.5314	-0.0200	0.0443	-0.0179	35.0162	-22.3105	5.1921	0.6564	-0.3131	0.5142	0.4547
8.69	-9.0537	0.6320	2.5307	-0.0034	0.0537	-0.0254	35.0928	-22.2155	5.1649	0.6564	-0.3131	0.5143	0.4546
8.7	-9.0543	0.6299	2.5223	-0.0050	0.0624	-0.0145	34.9436	-22.2690	5.3012	0.6562	-0.3132	0.5144	0.4546
8.71	-9.0846	0.6351	2.5003	-0.0026	0.0573	-0.0262	35.0872	-22.3910	5.2508	0.6561	-0.3133	0.5145	0.4545
8.72	-9.1097	0.6320	2.4820	-0.0033	0.0535	-0.0237	34.9978	-22.4024	5.3729	0.6560	-0.3134	0.5147	0.4545
8.73	-9.1207	0.6372	2.4818	0.0107	0.0524	-0.0242	34.9834	-22.4794	5.0332	0.6560	-0.3134	0.5148	0.4544
8.74	-9.1126	0.6421	2.4750	0.0203	0.0486	-0.0217	35.2620	-22.1270	5.1014	0.6559	-0.3134	0.5149	0.4543
8.75	-9.1019	0.6480	2.4796	0.0163	0.0451	-0.0254	35.2205	-22.3978	5.2843	0.6559	-0.3134	0.5151	0.4542
8.76	-9.1265	0.6528	2.4725	0.0153	0.0537	-0.0221	35.2414	-22.4311	5.0665	0.6558	-0.3134	0.5152	0.4541
8.77	-9.1238	0.6532	2.4524	0.0045	0.0412	-0.0246	35.1798	-22.3638	5.3414	0.6558	-0.3135	0.5153	0.4540
8.78	-9.1361	0.6588	2.4750	0.0080	0.0378	-0.0275	34.9945	-22.3674	5.1670	0.6558	-0.3135	0.5154	0.4539
8.79	-9.1521	0.6565	2.4764	0.0075	0.0446	-0.0264	35.2851	-22.4276	5.1978	0.6557	-0.3135	0.5155	0.4539
8.8	-9.1022	0.6402	2.4381	0.0073	0.0333	-0.0311	35.4341	-22.4214	5.2469	0.6557	-0.3135	0.5156	0.4538
8.81	-9.1249	0.6556	2.4836	0.0128	0.0337	-0.0201	35.0900	-22.3503	5.3761	0.6557	-0.3135	0.5157	0.4537
8.82	-9.1214	0.6634	2.4634	-0.0015	0.0383	-0.0165	35.1830	-22.4931	5.6300	0.6556	-0.3135	0.5157	0.4537
8.83	-9.1369	0.6522	2.4604	-0.0006	0.0333	-0.0297	34.9207	-22.2819	5.4695	0.6556	-0.3135	0.5158	0.4537
8.84	-9.1202	0.6396	2.4486	-0.0053	0.0305	-0.0264	35.1363	-22.0634	5.5552	0.6556	-0.3136	0.5158	0.4536
8.85	-9.0979	0.6147	2.4584	-0.0116	0.0301	-0.0259	35.1353	-22.3429	5.4579	0.6556	-0.3136	0.5158	0.4537
8.86	-9.1032	0.6058	2.4526	-0.0019	0.0301	-0.0201	35.0602	-22.2101	5.5060	0.6555	-0.3137	0.5159	0.4536
8.87	-9.1079	0.6012	2.4443	-0.0041	0.0302	-0.0143	35.1739	-22.3017	5.5518	0.6555	-0.3137	0.5159	0.4536
8.88	-9.1275	0.6139	2.4473	-0.0015	0.0316	-0.0085	35.1368	-22.4199	5.3383	0.6554	-0.3137	0.5160	0.4537
8.89	-9.1344	0.6213	2.4483	-0.0126	0.0304	-0.0099	35.0343	-22.2535	5.5189	0.6553	-0.3137	0.5160	0.4537
8.9	-9.1286	0.6058	2.4404	-0.0103	0.0314	-0.0094	34.9373	-22.3051	5.3994	0.6553	-0.3137	0.5161	0.4538
8.91	-9.1301	0.6020	2.4488	-0.0038	0.0234	-0.0085	35.0071	-22.2878	5.1474	0.6552	-0.3137	0.5161	0.4538
8.92	-9.1304	0.6022	2.4367	-0.0065	0.0271	-0.0041	35.2743	-22.2789	5.3176	0.6551	-0.3136	0.5162	0.4539
8.93	-9.1174	0.6045	2.4292	-0.0035	0.0270	-0.0087	35.1798	-22.4245	5.4930	0.6551	-0.3136	0.5162	0.4539
8.94	-9.1058	0.6176	2.4430	-0.0037	0.0228	-0.0059	35.1601	-22.3008	5.4888	0.6550	-0.3136	0.5163	0.4540
8.95	-9.1154	0.6299	2.4495	-0.0040	0.0236	-0.0071	35.0391	-22.6093	5.3792	0.6550	-0.3136	0.5163	0.4540
8.96	-9.1148	0.6333	2.4415	-0.0034	0.0258	-0.0057	35.0801	-22.2805	5.3985	0.6549	-0.3135	0.5163	0.4541
8.97	-9.0941	0.6410	2.4302	-0.0044	0.0246	-0.0058	35.5542	-22.1278	5.4660	0.6549	-0.3135	0.5164	0.4541
8.98	-9.1139	0.6485	2.4526	-0.0032	0.0275	-0.0059	35.6857	-21.8906	5.5449	0.6548	-0.3135	0.5164	0.4542
8.99	-9.1301	0.6523	2.4396	-0.0064	0.0284	-0.0059	35.7276	-22.0766	5.5515	0.6547	-0.3135	0.5165	0.4542
9	-9.1438	0.6435	2.4238	-0.0097	0.0269	-0.0057	35.2889	-23.0738	5.4651	0.6547	-0.3135	0.5165	0.4543
9.01	-9.1348	0.6440	2.4115	-0.0027	0.0264	-0.0060	35.2746	-23.3774	5.5428	0.6546	-0.3134	0.5166	0.4543
9.02	-9.1196	0.6452	2.4196	-0.0049	0.0249	-0.0057	35.2129	-22.0341	5.3380	0.6546	-0.3134	0.5166	0.4544
9.03	-9.1309	0.6504	2.4260	-0.0021	0.0226	-0.0063	34.9724	-22.1860	5.4704	0.6545	-0.3134	0.5167	0.4544
9.04	-9.1315	0.6495	2.4053	0.0062	0.0237	-0.0063	35.0545	-22.4759	5.4552	0.6545	-0.3133	0.5167	0.4544
9.05	-9.1437	0.6488	2.4182	0.0024	0.0228	-0.0064	35.1045	-22.2207	5.4604	0.6544	-0.3132	0.5168	0.4545
9.06	-9.1181	0.6486	2.4126	0.0097	0.0143	-0.0063	35.1695	-22.2456	5.4455	0.6544	-0.3132	0.5168	0.4545
9.07	-9.1349	0.6573	2.4351	0.0175	0.0137	-0.0087	35.3179	-22.2664	5.5830	0.6544	-0.3130	0.5169	0.4545
9.08	-9.1449	0.6580	2.4230	0.0030	0.0096	-0.0060	35.0674	-22.3231	5.5031	0.6544	-0.3129	0.5169	0.4546
9.09	-9.1332	0.6545	2.4206	0.0048	0.0060	-0.0087	35.2391	-22.1828	5.4087	0.6544	-0.3129	0.5169	0.4546
9.1	-9.1338	0.6659	2.4436	0.0170	0.0056	-0.0071	35.3959	-22.4581	5.6859	0.6545	-0.3127	0.5169	0.4546
9.11	-9.1350	0.6700	2.4461	0.0222	0.0048	-0.0093	35.3449	-22.5144	5.6174	0.6545	-0.3126	0.5169	0.4546
9.12	-9.1257	0.6759	2.4392	0.0172	-0.0012	-0.0107	35.3925	-22.4978	5.4983	0.6546	-0.3124	0.5169	0.4547
9.13	-9.1167	0.6844	2.4589	0.0193	-0.0109	-0.0094	35.2640	-22.5265	5.3539	0.6546	-0.3123	0.5169	0.4547
9.14	-9.1107	0.6887	2.4612	0.0178	-0.0129	-0.0125	35.3882	-22.3822	5.4921	0.6547	-0.3121	0.5169	0.4547
9.15	-9.1016	0.6884	2.4661	0.0174	-0.0111	-0.0174	35.3423	-22.4649	5.5691	0.6548	-0.3119	0.5168	0.4547
9.16	-9.0904	0.6876	2.4758	0.0147	-0.0025	-0.0088	35.4449	-22.3065	5.3078	0.6549	-0.3118	0.5168	0.4548
9.17	-9.0904	0.6900	2.4875	0.0201	-0.0079	-0.0147	35.3906	-22.4530	5.6051	0.6550	-0.3116	0.5168	0.4548
9.18	-9.0856	0.6926	2.4819	0.0102	-0.0054	-0.0145	35.2016	-22.4682	5.4937	0.6550	-0.3115	0.5168	0.4548
9.19	-9.0743	0.6889	2.4824	0.0110	-0.0106	-0.0129	35.2337	-22.2803	5.6862	0.6551	-0.3114	0.5167	0.4548
9.2	-9.0807	0.6913	2.4975	0.0004	-0.0109	-0.0100	35.3158	-22.3994	5.3769	0.6552	-0.3112	0.5166	0.4549
9.21	-9.1158	0.6987	2.5077	0.0012	-0.0011	-0.0082	35.0497	-22.5766	5.3831	0.6552	-0.3112	0.5166	0.4550
9.22	-9.1166	0.6908	2.4977	0.0110	0.0032	-0.0199	35.1315	-22.3631	5.5945	0.6553	-0.3111	0.5166	0.4550
9.23	-9.1040	0.6793	2.5042	0.0000	-0.0003	-0.0163	35.0504	-22.0091	5.5751	0.6553	-0.3110	0.5165	0.4550
9.24	-9.1072	0.6830	2.5101	0.0061	-0.0113	-0.0093	35.3171	-22.1580	5.6941	0.6554	-0.3109	0.5165	0.4551
9.25	-9.0760	0.6850	2.4956	-0.0020	-0.0036	-0.0136	35.1194	-22.3059	5.3549	0.6554	-0.3108	0.5164	0.4552
9.26	-9.0456	0.6794	2.4991	0.0068	-0.0042	-0.0125	35.3140	-22.1003	5.4192	0.6555	-0.3107	0.5164	0.4552
9.27	-9.0355	0.6856	2.5085	0.0034	-0.0079	-0.0120	35.0461	-22.1817	5.4787	0.6555	-0.3106	0.5163	0.4553
9.28	-9.0645	0.6861	2.5187	0.0055	-0.0031	-0.0125	34.9831	-22.4655	5.3514	0.6556	-0.3105	0.5163	0.4553
9.29	-9.1260	0.6862	2.5263	0.0035	0.0061	-0.0138	35.1513	-22.4204	5.2376	0.6556	-0.3104	0.5163	0.4553
9.3	-9.1623	0.6846	2.5051	-0.0040	0.0031	-0.0135	35.2623	-22.3646	5.3535	0.6556	-0.3103	0.5162	0.4554
9.31	-9.1540	0.6799	2.5065	0.0023	-0.0059	-0.0093	35.2137	-22.3216	5.3694	0.6556	-0.3102	0.5162	0.4555
9.32	-9.1235	0.6726	2.5290	0.0134	-0.0051	-0.0117	35.1544	-22.3278	5.3751	0.6557	-0.3101	0.5162	0.4555
9.33	-9.1026	0.6747	2.5239	0.0132	-0.0038	-0.0058	35.5669	-22.3691	5.3314	0.6558	-0.3099	0.5161	0.4555
9.34	-9.1120	0.6964	2.5257	0.0144	-0.0022	-0.0068	35.3925	-22.4539	5.2370	0.6558	-0.3098	0.5161	0.4556
9.35	-9.1000	0.7123	2.5249	0.0164	-0.0011	-0.0062	35.2781	-22.3132	5.3936	0.6558	-0.3096	0.5161	0.4556
9.36	-9.0889	0.7227	2.5270	0.0062	0.0019	-0.0066	35.2316	-22.3345	5.6003	0.6559	-0.3095	0.5161	0.4557
9.37	-9.0835	0.7124	2.5108	0.0064	0.0087	-0.0070	35.2297	-22.3584	5.2797	0.6559	-0.3094	0.5161	0.4557
9.38	-9.0630	0.6918	2.4864	0.0044	0.0071	-0.0084	35.2895	-22.5506	5.3499	0.6559	-0.3093	0.5161	0.4558
9.39	-9.0675	0.6942	2.4920	0.0130	0.0101	-0.0041	35.2875	-22.3625	5.4938	0.6559	-0.3092	0.5162	0.4558
9.4	-9.0920	0.7019	2.4901	0.0029	0.0095	-0.0160	35.2266	-22.2115	5.4269	0.6559	-0.3092	0.5162	0.4558
9.41	-9.0996	0.7007	2.4839	-0.0015	-0.0010	-0.0121	35.2028	-22.2587	5.5303	0.6559	-0.3091	0.5161	0.4559
9.42	-9.1032	0.6985	2.5025	-0.0027	-0.0057	-0.0069	34.9944	-22.2331	5.5803	0.6560	-0.3090	0.5161	0.4560
9.43	-9.1012	0.6982	2.5132	0.0003	0.0008	-0.0083	34.9218	-22.3695	5.2552	0.6560	-0.3089	0.5160	0.4560
9.44	-9.0873	0.6869	2.5067	0.0022	0.0003	-0.0169	35.2272	-22.3088	5.3743	0.6560	-0.3088	0.5160	0.4561
9.45	-9.0662	0.6878	2.5142	0.0038	-0.0052	-0.0229	35.1529	-22.3251	5.5733	0.6561	-0.3088	0.5159	0.4561
9.46	-9.0714	0.7000	2.5354	-0.0003	-0.0056	-0.0161	35.2330	-21.8487	5.5349	0.6562	-0.3087	0.5159	0.4561
9.47	-9.0984	0.6966	2.5412	0.0031	-0.0049	-0.0126	35.2672	-22.0435	5.5364	0.6562	-0.3086	0.5158	0.4562
9.48	-9.0394	0.6811	2.5054	0.0001	-0.0128	-0.0116	35.5828	-22.1182	5.5829	0.6563	-0.3085	0.5157	0.4563
9.49	-9.0512	0.7016	2.5663	0.0053	-0.0072	-0.0088	35.4276	-22.2387	5.4256	0.6563	-0.3084	0.5157	0.4563
9.5	-9.0474	0.7040	2.5462	0.0103	0.0029	-0.0059	35.1118	-23.0268	5.3869	0.6564	-0.3082	0.5157	0.4564
9.51	-9.0743	0.6954	2.5405	0.0011	0.0081	-0.0087	35.1664	-23.7319	5.4543	0.6564	-0.3082	0.5157	0.4564
9.52	-9.0650	0.6996	2.5267	-0.0052	0.0107	-0.0119	35.1446	-22.8956	5.3568	0.6564	-0.3081	0.5157	0.4565
9.53	-8.9923	0.6755	2.5355	-0.0048	0.0075	-0.0132	35.0705	-22.4203	5.4176	0.6564	-0.3081	0.5156	0.4565
9.54	-9.0362	0.6807	2.5729	-0.0017	0.0133	-0.0058	35.0903	-22.5198	5.4545	0.6563	-0.3080	0.5156	0.4566
9.55	-9.0383	0.6733	2.5280	0.0006	0.0217	-0.0065	35.2120	-22.4952	5.3424	0.6563	-0.3080	0.5157	0.4566
9.56	-9.0683	0.6808	2.5491	-0.0029	0.0164	-0.0085	35.0551	-22.2784	5.4818	0.6563	-0.3079	0.5157	0.4566
9.57	-9.0739	0.6901	2.5491	-0.0057	0.0214	-0.0062	34.9866	-22.2343	5.3587	0.6562	-0.3079	0.5157	0.4567
9.58	-9.0800	0.6877	2.5407	-0.0064	0.0287	-0.0099	34.9674	-22.2074	5.3728	0.6562	-0.3079	0.5158	0.4567
9.59	-9.0696	0.6759	2.5229	-0.0037	0.0320	-0.0079	35.0545	-22.3422	5.3908	0.6561	-0.3079	0.5158	0.4568
9.6	-9.0568	0.6831	2.5195	0.0060	0.0229	-0.0058	35.1783	-22.4817	5.3508	0.6561	-0.3079	0.5159	0.4568
9.61	-9.0457	0.7109	2.5129	0.0121	0.0352	-0.0068	34.9119	-22.4971	5.5722	0.6560	-0.3078	0.5160	0.4568
9.62	-9.0424	0.7333	2.5180	0.0043	0.0400	-0.0069	35.0807	-22.0957	5.4595	0.6559	-0.3078	0.5161	0.4568
9.63	-9.0720	0.7576	2.5239	0.0059	0.0403	-0.0060	35.0090	-22.3794	5.5971	0.6559	-0.3078	0.5162	0.4567
9.64	-9.0852	0.7743	2.5012	-0.0043	0.0473	-0.0069	34.8481	-22.4496	5.2794	0.6558	-0.3078	0.5163	0.4568
9.65	-9.1035	0.7772	2.4966	-0.0009	0.0486	-0.0140	34.9643	-22.3163	5.4207	0.6557	-0.3079	0.5165	0.4567
9.66	-9.1168	0.7704	2.4893	-0.0074	0.0390	-0.0150	34.9699	-22.4409	5.5752	0.6556	-0.3079	0.5165	0.4567
9.67	-9.1275	0.7559	2.4784	-0.0130	0.0369	-0.0117	35.0974	-22.4530	5.3207	0.6555	-0.3080	0.5166	0.4568
9.68	-9.1197	0.7420	2.4584	-0.0151	0.0409	-0.0210	35.0296	-22.4403	5.4185	0.6554	-0.3080	0.5166	0.4568
9.69	-9.1337	0.7376	2.4650	-0.0088	0.0356	-0.0200	35.1962	-22.4696	5.5397	0.6554	-0.3081	0.5167	0.4567
9.7	-9.1277	0.7266	2.4491	-0.0279	0.0382	-0.0222	35.2677	-22.6660	5.5841	0.6553	-0.3082	0.5167	0.4568
9.71	-9.1453	0.7143	2.4469	-0.0278	0.0347	-0.0184	35.2636	-22.3775	5.5604	0.6552	-0.3083	0.5167	0.4568
9.72	-9.1563	0.7052	2.4429	-0.0286	0.0283	-0.0214	35.0578	-22.4023	5.6963	0.6551	-0.3085	0.5167	0.4569
9.73	-9.1430	0.6948	2.4459	-0.0274	0.0262	-0.0236	34.9745	-22.6611	5.3673	0.6551	-0.3086	0.5166	0.4569
9.74	-9.1472	0.6886	2.4554	-0.0290	0.0162	-0.0235	34.8779	-22.5294	5.4864	0.6550	-0.3087	0.5166	0.4570
9.75	-9.1459	0.6848	2.4491	-0.0255	0.0128	-0.0177	35.1636	-22.4150	5.4489	0.6550	-0.3087	0.5165	0.4570
9.76	-9.1411	0.6875	2.4541	-0.0251	0.0042	-0.0208	35.0638	-22.4924	5.3738	0.6550	-0.3088	0.5164	0.4571
9.77	-9.1068	0.6749	2.4543	-0.0190	0.0010	-0.0247	34.9955	-22.2895	5.6160	0.6550	-0.3088	0.5163	0.4572
9.78	-9.1147	0.6649	2.4714	-0.0161	0.0012	-0.0230	35.2474	-22.1642	5.4091	0.6551	-0.3088	0.5162	0.4572
9.79	-9.1084	0.6597	2.4613	-0.0152	0.0089	-0.0268	34.7927	-22.3178	5.4131	0.6551	-0.3088	0.5162	0.4573
9.8	-9.1010	0.6548	2.4656	-0.0146	0.0044	-0.0232	34.9671	-22.6602	5.4852	0.6551	-0.3088	0.5161	0.4573
9.81	-9.1145	0.6654	2.4862	-0.0033	-0.0005	-0.0215	35.2227	-22.7554	5.5032	0.6551	-0.3088	0.5160	0.4573
9.82	-9.1030	0.6650	2.4826	-0.0056	-0.0058	-0.0115	35.0052	-22.4581	5.3108	0.6552	-0.3087	0.5160	0.4574
9.83	-9.0978	0.6626	2.4891	-0.0039	-0.0067	-0.0132	35.1503	-22.3133	5.1990	0.6552	-0.3087	0.5159	0.4575
9.84	-9.0805	0.6652	2.4956	-0.0036	-0.0113	-0.0153	34.8924	-22.4529	5.6222	0.6553	-0.3086	0.5158	0.4575
9.85	-9.0745	0.6644	2.5077	-0.0028	-0.0118	-0.0088	34.8216	-22.4316	5.4297	0.6553	-0.3085	0.5157	0.4576
9.86	-9.0799	0.6710	2.5054	-0.0012	-0.0107	-0.0101	35.1167	-22.6109	5.3920	0.6554	-0.3084	0.5156	0.4577
9.87	-9.0800	0.6760	2.5133	-0.0064	-0.0110	-0.0112	35.1016	-22.7603	5.3433	0.6554	-0.3083	0.5156	0.4578
9.88	-9.0567	0.6759	2.5141	0.0075	-0.0131	-0.0070	35.2054	-22.6240	5.1856	0.6555	-0.3082	0.5155	0.4578
9.89	-9.0494	0.6812	2.5329	0.0099	-0.0107	-0.0070	34.9257	-22.4130	5.2998	0.6555	-0.3081	0.5155	0.4579
9.9	-9.0606	0.6885	2.5470	0.0076	-0.0107	-0.0066	35.1813	-22.4884	5.4528	0.6556	-0.3079	0.5154	0.4580
9.91	-9.0587	0.6840	2.5373	0.0096	-0.0028	-0.0085	35.0941	-22.5635	5.4738	0.6556	-0.3078	0.5154	0.4580
9.92	-9.0487	0.6818	2.5432	0.0138	-0.0051	-0.0074	34.9811	-22.5070	5.4923	0.6557	-0.3077	0.5154	0.4580
9.93	-9.0466	0.6957	2.5542	0.0172	-0.0019	-0.0062	34.8531	-22.4619	5.4242	0.6558	-0.3075	0.5154	0.4581
9.94	-9.0266	0.6950	2.5447	0.0125	0.0085	-0.0068	34.9679	-22.5724	5.2233	0.6558	-0.3074	0.5154	0.4581
9.95	-9.0113	0.6915	2.5440	0.0125	0.0106	-0.0064	34.9818	-22.4543	5.4007	0.6558	-0.3073	0.5154	0.4581
9.96	-8.9933	0.7067	2.5341	0.0190	0.0194	-0.0065	34.9963	-22.4261	5.3644	0.6558	-0.3072	0.5155	0.4581
9.97	-9.0492	0.7294	2.5612	0.0179	0.0219	-0.0091	35.2447	-22.3543	5.5512	0.6558	-0.3071	0.5156	0.4581
9.98	-9.0865	0.7244	2.5448	0.0200	0.0311	-0.0114	35.7392	-22.0449	5.7826	0.6558	-0.3070	0.5157	0.4580
9.99	-9.1381	0.7116	2.5453	0.0132	0.0316	-0.0139	35.6196	-22.1244	5.6428	0.6557	-0.3070	0.5158	0.4580
10	-9.1349	0.7038	2.5428	0.0132	0.0312	-0.0184	35.0698	-23.0964	5.4225	0.6557	-0.3070	0.5159	0.4579
10.01	-9.1062	0.6885	2.5504	0.0187	0.0288	-0.0151	34.9039	-23.7027	5.4744	0.6557	-0.3069	0.5160	0.4579
10.02	-9.1006	0.6876	2.5463	0.0207	0.0347	-0.0090	34.6988	-22.5448	5.7546	0.6557	-0.3069	0.5161	0.4578
10.03	-9.0799	0.6884	2.5200	0.0227	0.0363	-0.0066	34.8651	-22.3833	5.6378	0.6556	-0.3068	0.5162	0.4578
10.04	-9.0589	0.7055	2.5173	0.0220	0.0342	-0.0055	34.9621	-22.5129	5.2177	0.6556	-0.3067	0.5164	0.4577
10.05	-9.0418	0.7156	2.5113	0.0207	0.0385	-0.0107	35.0430	-22.5009	5.4254	0.6556	-0.3066	0.5165	0.4577
10.06	-9.0465	0.7075	2.5008	0.0159	0.0474	-0.0099	34.9813	-22.6432	5.4733	0.6555	-0.3066	0.5167	0.4576
10.07	-9.0611	0.7029	2.4843	0.0224	0.0510	-0.0186	35.1585	-22.5620	5.4693	0.6554	-0.3066	0.5168	0.4575
10.08	-9.0805	0.7092	2.4788	0.0223	0.0433	-0.0150	35.1735	-22.5785	5.4182	0.6554	-0.3066	0.5170	0.4574
10.09	-9.1006	0.7252	2.4800	0.0227	0.0429	-0.0112	35.0028	-22.5638	5.3460	0.6553	-0.3065	0.5171	0.4573
10.1	-9.1120	0.7235	2.4726	0.0234	0.0507	-0.0234	35.0178	-22.4306	5.3682	0.6553	-0.3065	0.5173	0.4572
10.11	-9.1176	0.7178	2.4722	0.0180	0.0486	-0.0222	35.0168	-22.5255	5.6375	0.6553	-0.3065	0.5174	0.4571
10.12	-9.0913	0.7038	2.4619	0.0135	0.0494	-0.0250	34.9898	-22.4026	5.5923	0.6552	-0.3066	0.5176	0.4570
10.13	-9.0974	0.6924	2.4726	0.0152	0.0410	-0.0276	34.7833	-22.4594	5.5190	0.6552	-0.3066	0.5177	0.4569
10.14	-9.0894	0.6825	2.4629	0.0184	0.0424	-0.0273	35.1039	-22.3335	5.5763	0.6552	-0.3066	0.5178	0.4568
10.15	-9.0978	0.6692	2.4630	0.0185	0.0450	-0.0288	34.8818	-22.4791	5.5112	0.6552	-0.3066	0.5179	0.4566
10.16	-9.1266	0.6650	2.4553	0.0183	0.0486	-0.0212	34.8916	-22.1495	5.6376	0.6551	-0.3066	0.5181	0.4565
10.17	-9.0656	0.6554	2.4231	0.0221	0.0511	-0.0195	34.9359	-22.2711	5.6245	0.6551	-0.3066	0.5182	0.4564
10.18	-9.0883	0.6828	2.4660	0.0222	0.0385	-0.0087	34.9450	-22.4843	5.5582	0.6550	-0.3066	0.5184	0.4563
10.19	-9.1093	0.6953	2.4406	0.0227	0.0572	-0.0168	35.0208	-22.2156	5.6690	0.6549	-0.3066	0.5186	0.4562
10.2	-9.1121	0.6772	2.4214	0.0180	0.0485	-0.0132	34.7850	-22.4345	5.6181	0.6549	-0.3066	0.5187	0.4561
10.21	-9.1108	0.6820	2.4244	0.0181	0.0484	-0.0197	34.9820	-22.4437	5.7556	0.6548	-0.3066	0.5189	0.4560
10.22	-9.0635	0.6648	2.4200	0.0232	0.0376	-0.0096	34.7188	-22.3039	5.5803	0.6548	-0.3065	0.5190	0.4560
10.23	-9.1139	0.6757	2.4407	0.0212	0.0491	-0.0084	35.1000	-22.6665	5.7381	0.6547	-0.3065	0.5192	0.4559
10.24	-9.1155	0.6892	2.3929	0.0233	0.0472	-0.0086	34.9982	-22.8009	5.7480	0.6547	-0.3064	0.5194	0.4558
10.25	-9.1206	0.7083	2.4223	0.0192	0.0397	-0.0052	34.9534	-22.6875	5.6218	0.6546	-0.3064	0.5195	0.4558
10.26	-9.1412	0.7355	2.4435	0.0208	0.0405	-0.0099	35.1283	-22.5030	5.6629	0.6545	-0.3063	0.5197	0.4557
10.27	-9.1314	0.7262	2.4138	0.0197	0.0420	-0.0117	34.8912	-22.3922	5.6125	0.6545	-0.3063	0.5198	0.4556
10.28	-9.1269	0.7105	2.4089	0.0210	0.0408	-0.0133	34.9374	-22.5670	5.7699	0.6545	-0.3062	0.5200	0.4556
10.29	-9.1246	0.7210	2.4156	0.0235	0.0420	-0.0067	34.9287	-22.4795	5.8295	0.6544	-0.3062	0.5201	0.4555
10.3	-9.1176	0.7206	2.4134	0.0217	0.0381	-0.0136	34.9012	-22.4089	5.8457	0.6544	-0.3061	0.5203	0.4554
10.31	-9.1053	0.7059	2.4114	0.0225	0.0441	-0.0238	35.0373	-22.5286	5.7282	0.6543	-0.3061	0.5204	0.4553
10.32	-9.0913	0.7037	2.4094	0.0165	0.0397	-0.0135	34.9727	-22.5319	5.6424	0.6543	-0.3061	0.5205	0.4552
10.33	-9.0965	0.7034	2.4065	0.0202	0.0344	-0.0145	34.9516	-22.3351	5.9485	0.6543	-0.3061	0.5206	0.4552
10.34	-9.0818	0.7041	2.3961	0.0226	0.0456	-0.0187	34.7802	-22.1906	6.1113	0.6542	-0.3060	0.5208	0.4551
10.35	-9.1071	0.7166	2.3991	0.0203	0.0444	-0.0160	34.6519	-22.4986	6.0743	0.6542	-0.3060	0.5209	0.4550
10.36	-9.1208	0.7122	2.3911	0.0184	0.0435	-0.0140	34.7434	-22.4846	6.1623	0.6541	-0.3060	0.5211	0.4549
10.37	-9.1223	0.7077	2.3904	0.0151	0.0478	-0.0158	34.6441	-22.4409	5.9250	0.6541	-0.3060	0.5212	0.4548
10.38	-9.1275	0.7051	2.3934	0.0149	0.0477	-0.0096	34.9572	-22.3548	5.6833	0.6540	-0.3060	0.5214	0.4547
10.39	-9.1511	0.7087	2.3931	0.0224	0.0460	-0.0065	34.9161	-22.2569	5.9560	0.6539	-0.3059	0.5216	0.4547
10.4	-9.1383	0.7139	2.3741	0.0188	0.0468	-0.0065	34.9228	-22.3690	6.0730	0.6539	-0.3059	0.5217	0.4546
10.41	-9.1311	0.7217	2.3798	0.0194	0.0419	-0.0048	34.7123	-22.3745	6.0580	0.6538	-0.3059	0.5219	0.4546
10.42	-9.1225	0.7261	2.3708	0.0236	0.0380	-0.0098	34.8639	-22.6478	5.8960	0.6538	-0.3058	0.5220	0.4545
10.43	-9.1330	0.7252	2.3651	0.0196	0.0350	-0.0063	34.9137	-22.5891	5.9299	0.6537	-0.3057	0.5222	0.4545
10.44	-9.1699	0.7331	2.3640	0.0190	0.0376	-0.0124	34.9802	-22.6555	5.9385	0.6537	-0.3057	0.5223	0.4544
10.45	-9.1959	0.7320	2.3301	0.0216	0.0335	-0.0173	35.0780	-22.7447	6.2016	0.6537	-0.3057	0.5224	0.4543
10.46	-9.1840	0.7227	2.3106	0.0242	0.0191	-0.0077	35.1568	-22.5385	6.3108	0.6537	-0.3055	0.5225	0.4543
10.47	-9.1689	0.7275	2.3221	0.0222	0.0062	-0.0095	35.4173	-22.4412	6.2662	0.6537	-0.3054	0.5225	0.4542
10.48	-9.1451	0.7385	2.3299	0.0223	0.0029	-0.0106	35.6163	-22.2927	6.1045	0.6538	-0.3053	0.5226	0.4542
10.49	-9.1391	0.7512	2.3414	0.0224	-0.0021	-0.0081	35.3220	-22.4214	6.1837	0.6538	-0.3051	0.5226	0.4542
10.5	-9.1280	0.7457	2.3350	0.0222	0.0070	-0.0129	34.9131	-23.1114	5.9528	0.6539	-0.3050	0.5226	0.4542
10.51	-9.1190	0.7453	2.3515	0.0219	-0.0003	-0.0115	35.0933	-23.6012	6.0877	0.6539	-0.3049	0.5226	0.4542
10.52	-9.1319	0.7613	2.3650	0.0245	0.0016	-0.0152	34.7608	-22.4574	6.1146	0.6540	-0.3048	0.5226	0.4542
10.53	-9.1207	0.7585	2.3627	0.0212	-0.0009	-0.0197	34.8153	-22.4155	6.2162	0.6541	-0.3046	0.5226	0.4541
10.54	-9.1180	0.7571	2.3672	0.0228	0.0079	-0.0135	34.9398	-22.4774	5.8919	0.6541	-0.3045	0.5226	0.4541
10.55	-9.1154	0.7630	2.3733	0.0252	-0.0026	-0.0138	34.9918	-22.3920	6.0664	0.6542	-0.3044	0.5227	0.4541
10.56	-9.0891	0.7702	2.3810	0.0243	0.0016	-0.0164	34.9844	-22.2477	6.0474	0.6543	-0.3043	0.5227	0.4540
10.57	-9.0824	0.7807	2.3955	0.0223	0.0001	-0.0083	34.9634	-22.4002	5.9816	0.6544	-0.3041	0.5227	0.4540
10.58	-9.0994	0.7848	2.4073	0.0225	0.0091	-0.0130	34.8660	-22.4562	6.0602	0.6544	-0.3040	0.5227	0.4540
10.59	-9.0871	0.7732	2.3957	0.0217	0.0127	-0.0165	34.9089	-22.4461	6.2019	0.6544	-0.3039	0.5228	0.4539
10.6	-9.0763	0.7697	2.4092	0.0247	0.0062	-0.0137	34.7964	-22.4389	6.1195	0.6545	-0.3038	0.5228	0.4539
10.61	-9.0876	0.7855	2.4136	0.0261	0.0215	-0.0124	34.7893	-22.3495	5.9402	0.6545	-0.3037	0.5229	0.4538
10.62	-9.0631	0.7883	2.3905	0.0214	0.0248	-0.0158	34.8495	-22.5408	5.9601	0.6545	-0.3036	0.5229	0.4538
10.63	-9.0541	0.7891	2.4049	0.0225	0.0309	-0.0120	34.9807	-22.5227	6.1334	0.6545	-0.3036	0.5231	0.4537
10.64	-9.0504	0.7982	2.4014	0.0222	0.0355	-0.0198	34.9940	-22.6454	5.9987	0.6545	-0.3035	0.5232	0.4536
10.65	-9.0755	0.7968	2.3947	0.0211	0.0409	-0.0223	35.0881	-22.5952	5.8770	0.6545	-0.3035	0.5233	0.4535
10.66	-9.1188	0.7900	2.3908	0.0182	0.0418	-0.0248	35.0647	-22.4409	6.0585	0.6545	-0.3035	0.5234	0.4534
10.67	-9.1787	0.7937	2.3866	0.0144	0.0516	-0.0276	35.0645	-22.4485	6.3203	0.6544	-0.3036	0.5235	0.4533
10.68	-9.1672	0.7776	2.3683	0.0141	0.0408	-0.0252	35.0889	-22.4345	6.1692	0.6544	-0.3036	0.5237	0.4532
10.69	-9.1347	0.7577	2.3887	0.0182	0.0353	-0.0198	35.0086	-22.6513	6.2221	0.6544	-0.3036	0.5238	0.4531
10.7	-9.1318	0.7706	2.3779	0.0164	0.0481	-0.0161	34.9760	-22.4609	6.1826	0.6543	-0.3036	0.5239	0.4530
10.71	-9.1116	0.7817	2.3487	0.0090	0.0502	-0.0213	34.8798	-22.3425	6.3136	0.6543	-0.3036	0.5240	0.4529
10.72	-9.0886	0.7949	2.3452	0.0073	0.0510	-0.0201	34.9075	-22.3391	6.2672	0.6542	-0.3037	0.5242	0.4528
10.73	-9.1006	0.8045	2.3478	0.0035	0.0510	-0.0209	34.8538	-22.2221	6.0910	0.6541	-0.3037	0.5243	0.4528
10.74	-9.1251	0.7893	2.3279	-0.0027	0.0570	-0.0252	35.0939	-22.3808	6.1927	0.6540	-0.3039	0.5244	0.4527
10.75	-9.1146	0.7565	2.2984	-0.0039	0.0538	-0.0276	35.0402	-22.4430	6.3318	0.6540	-0.3040	0.5245	0.4526
10.76	-9.1270	0.7492	2.3020	-0.0032	0.0487	-0.0260	34.7954	-22.4640	6.2350	0.6539	-0.3041	0.5246	0.4525
10.77	-9.1274	0.7535	2.2976	-0.0043	0.0468	-0.0230	34.7953	-22.3668	6.1584	0.6538	-0.3042	0.5247	0.4525
10.78	-9.1462	0.7491	2.2885	-0.0036	0.0503	-0.0188	34.9072	-22.3503	6.4280	0.6537	-0.3042	0.5248	0.4524
10.79	-9.1663	0.7424	2.2868	-0.0036	0.0452	-0.0246	34.8752	-22.3589	6.1984	0.6537	-0.3043	0.5248	0.4524
10.8	-9.1721	0.7400	2.2721	-0.0013	0.0381	-0.0191	34.9425	-22.3626	6.2657	0.6536	-0.3044	0.5249	0.4523
10.81	-9.1731	0.7253	2.2684	0.0035	0.0403	-0.0246	35.0812	-22.3262	6.2318	0.6536	-0.3044	0.5250	0.4523
10.82	-9.1681	0.7110	2.2564	-0.0030	0.0352	-0.0155	35.0704	-22.7159	6.1622	0.6535	-0.3045	0.5251	0.4522
10.83	-9.1833	0.6998	2.2578	-0.0000	0.0373	-0.0222	35.0464	-22.6370	6.4572	0.6535	-0.3045	0.5251	0.4522
10.84	-9.2194	0.6831	2.2519	0.0105	0.0329	-0.0196	34.8697	-22.4048	6.4172	0.6534	-0.3046	0.5252	0.4521
10.85	-9.1696	0.6692	2.2099	-0.0036	0.0285	-0.0158	35.0004	-22.5564	6.2827	0.6534	-0.3046	0.5252	0.4521
10.86	-9.1836	0.6834	2.2435	0.0132	0.0209	-0.0116	34.8346	-22.5149	6.3976	0.6534	-0.3045	0.5253	0.4521
10.87	-9.1831	0.6946	2.2237	0.0085	0.0225	-0.0102	35.0029	-22.3643	6.0232	0.6534	-0.3045	0.5254	0.4521
10.88	-9.1973	0.6791	2.2138	0.0046	0.0135	-0.0110	35.1990	-22.3554	6.3154	0.6534	-0.3045	0.5254	0.4521
10.89	-9.2106	0.6885	2.2151	0.0090	0.0129	-0.0088	34.9285	-22.3466	6.4672	0.6534	-0.3044	0.5254	0.4521
10.9	-9.1542	0.6774	2.2107	0.0136	0.0081	-0.0089	34.8788	-22.5220	6.5446	0.6534	-0.3043	0.5254	0.4521
10.91	-9.1966	0.6929	2.2437	0.0211	0.0038	-0.0061	34.9045	-22.2471	6.5089	0.6535	-0.3042	0.5254	0.4521
10.92	-9.2039	0.7145	2.2214	0.0216	-0.0001	-0.0009	34.8748	-22.4627	6.3836	0.6535	-0.3040	0.5255	0.4521
10.93	-9.2160	0.7328	2.2416	0.0226	-0.0131	-0.0038	34.9202	-22.5221	6.3456	0.6536	-0.3038	0.5255	0.4521
10.94	-9.2040	0.7493	2.2569	0.0221	-0.0066	-0.0052	34.8131	-22.4438	6.3252	0.6536	-0.3037	0.5255	0.4521
10.95	-9.1898	0.7557	2.2578	0.0222	-0.0110	-0.0069	34.8780	-22.6149	6.4209	0.6537	-0.3035	0.5254	0.4522
10.96	-9.2000	0.7508	2.2575	0.0227	-0.0135	-0.0060	34.7961	-22.2562	6.2636	0.6538	-0.3033	0.5254	0.4522
10.97	-9.1733	0.7508	2.2454	0.0220	-0.0163	-0.0068	34.9773	-22.2144	6.5720	0.6539	-0.3032	0.5254	0.4522
10.98	-9.1712	0.7747	2.2811	0.0226	-0.0256	-0.0048	35.6143	-22.0062	6.3110	0.6540	-0.3030	0.5253	0.4522
10.99	-9.1552	0.7852	2.2849	0.0211	-0.0228	-0.0070	35.3229	-22.3172	6.2959	0.6541	-0.3028	0.5253	0.4523
11	-9.1449	0.7847	2.2762	0.0181	-0.0242	-0.0067	34.9572	-23.1765	6.2314	0.6542	-0.3026	0.5252	0.4523
11.01	-9.1427	0.7799	2.2873	0.0150	-0.0218	-0.0067	34.9956	-23.6424	6.1908	0.6543	-0.3024	0.5251	0.4524
11.02	-9.1343	0.7818	2.2973	0.0218	-0.0261	-0.0067	34.7901	-22.5132	6.2969	0.6545	-0.3022	0.5250	0.4524
11.03	-9.1382	0.7851	2.3059	0.0131	-0.0210	-0.0068	34.9682	-22.4623	6.4166	0.6546	-0.3021	0.5250	0.4524
11.04	-9.1351	0.7843	2.3069	-0.0020	-0.0232	-0.0070	35.0299	-22.5238	6.2382	0.6546	-0.3019	0.5249	0.4525
11.05	-9.1365	0.7841	2.3171	0.0038	-0.0178	-0.0049	35.0082	-22.4727	6.2190	0.6547	-0.3018	0.5248	0.4526
11.06	-9.1369	0.7813	2.3233	0.0044	-0.0227	-0.0070	35.0467	-22.5219	6.1222	0.6548	-0.3017	0.5247	0.4527
11.07	-9.1325	0.7784	2.3292	-0.0009	-0.0223	-0.0065	34.7641	-22.4643	6.2260	0.6549	-0.3016	0.5246	0.4528
11.08	-9.1236	0.7796	2.3384	-0.0037	-0.0245	-0.0071	34.9526	-22.4049	6.3689	0.6550	-0.3015	0.5245	0.4529
11.09	-9.1364	0.7834	2.3441	-0.0019	-0.0194	-0.0056	34.7767	-22.3561	6.4247	0.6550	-0.3014	0.5243	0.4530
11.1	-9.1228	0.7790	2.3398	0.0010	-0.0159	-0.0085	34.7451	-22.2023	6.1835	0.6551	-0.3013	0.5243	0.4530
11.11	-9.0956	0.7742	2.3496	-0.0034	-0.0275	-0.0082	34.8631	-22.3844	6.2146	0.6552	-0.3011	0.5241	0.4531
11.12	-9.0994	0.7800	2.3607	-0.0036	-0.0221	-0.0077	34.8526	-22.2221	6.2040	0.6553	-0.3010	0.5240	0.4532
11.13	-9.1017	0.7781	2.3625	-0.0017	-0.0191	-0.0112	34.7433	-22.3128	6.2148	0.6553	-0.3009	0.5239	0.4533
11.14	-9.0991	0.7771	2.3618	-0.0056	-0.0219	-0.0069	34.8749	-22.5227	6.1025	0.6554	-0.3008	0.5238	0.4534
11.15	-9.1179	0.7900	2.3850	0.0061	-0.0211	-0.0078	34.9187	-22.5040	6.1312	0.6555	-0.3007	0.5237	0.4535
11.16	-9.1312	0.7913	2.3827	0.0176	-0.0194	-0.0085	34.7852	-22.4602	6.1089	0.6556	-0.3006	0.5236	0.4535
11.17	-9.1383	0.8013	2.3817	0.0029	-0.0206	-0.0069	34.9648	-22.7099	6.1401	0.6557	-0.3004	0.5236	0.4536
11.18	-9.1411	0.8126	2.3820	0.0125	-0.0233	-0.0051	35.0058	-22.7317	6.1026	0.6558	-0.3003	0.5235	0.4536
11.19	-9.1255	0.8247	2.3878	0.0006	-0.0252	-0.0074	34.8841	-22.5153	6.1831	0.6559	-0.3001	0.5234	0.4537
11.2	-9.1167	0.8354	2.3972	-0.0001	-0.0259	-0.0072	35.0284	-22.6911	6.2374	0.6559	-0.3000	0.5232	0.4538
11.21	-9.1241	0.8397	2.4005	0.0036	-0.0373	-0.0073	35.0098	-22.6708	6.1137	0.6561	-0.2999	0.5231	0.4539
11.22	-9.1457	0.8515	2.4071	-0.0083	-0.0342	-0.0077	34.8946	-22.5243	5.9614	0.6562	-0.2997	0.5229	0.4540
11.23	-9.1267	0.8481	2.3968	-0.0093	-0.0355	-0.0073	34.9695	-22.4977	5.9630	0.6563	-0.2996	0.5228	0.4542
11.24	-9.1077	0.8492	2.4160	-0.0178	-0.0386	-0.0087	34.8016	-22.4796	6.2434	0.6564	-0.2995	0.5226	0.4543
11.25	-9.0762	0.8418	2.4113	-0.0228	-0.0362	-0.0040	35.0063	-22.6470	6.0864	0.6564	-0.2995	0.5224	0.4545
11.26	-9.0584	0.8267	2.4116	-0.0193	-0.0409	-0.0075	35.1204	-22.6299	6.1750	0.6565	-0.2994	0.5222	0.4546
11.27	-9.0621	0.8187	2.4193	-0.0296	-0.0288	-0.0045	34.8430	-22.5672	6.2605	0.6566	-0.2993	0.5220	0.4548
11.28	-9.0700	0.8091	2.4153	-0.0285	-0.0250	-0.0054	34.7262	-22.5961	6.0706	0.6566	-0.2993	0.5218	0.4550
11.29	-9.0959	0.8154	2.4167	-0.0312	-0.0290	-0.0053	34.7909	-22.3322	5.7865	0.6567	-0.2993	0.5216	0.4552
11.3	-9.0794	0.8182	2.4122	-0.0281	-0.0187	-0.0044	34.8580	-22.5244	6.0957	0.6567	-0.2992	0.5214	0.4553
11.31	-9.0623	0.8139	2.4254	-0.0292	-0.0182	-0.0091	34.8399	-22.3878	6.2284	0.6567	-0.2992	0.5213	0.4555
11.32	-9.0652	0.8166	2.4269	-0.0255	-0.0090	-0.0063	34.7277	-22.5450	6.0842	0.6567	-0.2992	0.5212	0.4556
11.33	-9.0871	0.8123	2.4311	-0.0225	-0.0103	-0.0097	34.6227	-22.5883	5.9993	0.6567	-0.2992	0.5210	0.4557
11.34	-9.1376	0.8084	2.4448	-0.0166	-0.0071	-0.0105	34.7375	-22.6158	5.8057	0.6568	-0.2992	0.5209	0.4558
11.35	-9.1734	0.8022	2.4436	-0.0039	-0.0105	-0.0092	34.8458	-22.4476	6.0793	0.6568	-0.2992	0.5209	0.4559
11.36	-9.1479	0.7909	2.4460	-0.0059	-0.0176	-0.0077	34.9676	-22.8328	5.8280	0.6569	-0.2991	0.5208	0.4560
11.37	-9.1123	0.7844	2.4668	-0.0028	-0.0161	-0.0061	34.8680	-22.5396	5.8085	0.6569	-0.2990	0.5207	0.4561
11.38	-9.1048	0.8022	2.4751	-0.0048	-0.0132	-0.0093	35.1402	-22.6223	6.1206	0.6570	-0.2989	0.5206	0.4561
11.39	-9.0901	0.8326	2.4624	-0.0011	-0.0087	-0.0074	34.9546	-22.9990	5.7460	0.6570	-0.2988	0.5205	0.4562
11.4	-9.0550	0.8619	2.4745	0.0068	-0.0229	-0.0064	34.9814	-22.5003	5.8445	0.6571	-0.2987	0.5204	0.4563
11.41	-9.0392	0.8766	2.4950	-0.0032	-0.0144	-0.0072	34.9625	-22.7054	5.9936	0.6571	-0.2986	0.5203	0.4563
11.42	-9.0405	0.8667	2.4915	-0.0062	-0.0049	-0.0136	34.9198	-22.6381	5.8140	0.6572	-0.2986	0.5203	0.4564
11.43	-9.0405	0.8490	2.4800	-0.0062	0.0013	-0.0138	34.9070	-22.8444	5.9999	0.6572	-0.2986	0.5202	0.4564
11.44	-9.0480	0.8488	2.4940	-0.0044	-0.0043	-0.0123	34.8185	-22.6120	5.8608	0.6572	-0.2985	0.5202	0.4565
11.45	-9.0619	0.8554	2.5081	-0.0073	0.0097	-0.0162	34.8396	-22.6123	5.8451	0.6572	-0.2985	0.5201	0.4565
11.46	-9.0618	0.8446	2.4982	-0.0177	0.0146	-0.0238	34.8543	-22.4328	5.8325	0.6572	-0.2986	0.5201	0.4565
11.47	-9.0537	0.8360	2.5019	-0.0074	0.0110	-0.0257	34.9543	-22.3661	6.0210	0.6573	-0.2986	0.5200	0.4565
11.48	-9.0600	0.8359	2.5145	-0.0135	0.0099	-0.0313	35.6238	-22.2867	6.2003	0.6573	-0.2987	0.5200	0.4565
11.49	-9.0608	0.8318	2.5055	-0.0252	0.0084	-0.0306	35.2940	-22.4163	5.9446	0.6573	-0.2988	0.5199	0.4565
11.5	-9.0562	0.8243	2.5084	-0.0077	0.0118	-0.0320	34.9582	-23.0083	5.7920	0.6573	-0.2989	0.5198	0.4565
